{
      "resourceType": "Bundle",
      "id": "c2efeaf7-2272-4daf-82e7-f9b2036034a2",
      "meta": {
         "lastUpdated": "2020-07-25T01:54:58.494+00:00"
      },
      "type": "searchset",
      "total": 29,
      "link": [
         {
            "relation": "self",
            "url": "http://165.227.51.4:9002/baseDstu2/Patient/smart-1081332/$everything?_count=50"
         }
      ],
      "entry": [
         {
            "fullUrl": "http://165.227.51.4:9002/baseDstu2/Patient/smart-1081332",
            "resource": {
               "resourceType": "Patient",
               "id": "smart-1081332",
               "meta": {
                  "versionId": "1",
                  "lastUpdated": "2019-08-23T22:11:46.504+00:00",
                  "security": [
                     {
                        "system": "http://smarthealthit.org/security/categories",
                        "code": "patient"
                     },
                     {
                        "system": "http://smarthealthit.org/security/users",
                        "code": "Patient/smart-1081332"
                     }
                  ]
               },
               "text": {
                  "status": "generated",
                  "div": "<div xmlns=\"http://www.w3.org/1999/xhtml\">        <p>Joseph Ross</p>      </div>"
               },
               "identifier": [
                  {
                     "use": "usual",
                     "type": {
                        "coding": [
                           {
                              "system": "http://hl7.org/fhir/v2/0203",
                              "code": "MR",
                              "display": "Medical record number"
                           }
                        ],
                        "text": "Medical record number"
                     },
                     "system": "http://hospital.smarthealthit.org",
                     "value": "1081332"
                  }
               ],
               "active": true,
               "name": [
                  {
                     "use": "official",
                     "family": [
                        "Ross"
                     ],
                     "given": [
                        "Joseph",
                        "I."
                     ]
                  }
               ],
               "telecom": [
                  {
                     "system": "phone",
                     "value": "800-960-9294",
                     "use": "mobile"
                  },
                  {
                     "system": "email",
                     "value": "joseph.ross@example.com"
                  }
               ],
               "gender": "male",
               "birthDate": "2003-10-02",
               "address": [
                  {
                     "use": "home",
                     "line": [
                        "19 Church StApt 29"
                     ],
                     "city": "Tulsa",
                     "state": "OK",
                     "postalCode": "74108",
                     "country": "USA"
                  }
               ]
            },
            "search": {
               "mode": "include"
            }
         },
         {
            "fullUrl": "http://165.227.51.4:9002/baseDstu2/MedicationOrder/smart-medicationorder-102",
            "resource": {
               "resourceType": "MedicationOrder",
               "id": "smart-medicationorder-102",
               "meta": {
                  "versionId": "1",
                  "lastUpdated": "2019-08-23T22:11:46.504+00:00",
                  "security": [
                     {
                        "system": "http://smarthealthit.org/security/categories",
                        "code": "medications"
                     },
                     {
                        "system": "http://smarthealthit.org/security/users",
                        "code": "Patient/smart-1081332"
                     }
                  ]
               },
               "text": {
                  "status": "generated",
                  "div": "<div xmlns=\"http://www.w3.org/1999/xhtml\">      Amoxicillin 80 MG/ML Oral Suspension (rxnorm: 308189)    </div>"
               },
               "status": "active",
               "patient": {
                  "reference": "Patient/smart-1081332"
               },
               "medicationCodeableConcept": {
                  "coding": [
                     {
                        "system": "http://www.nlm.nih.gov/research/umls/rxnorm",
                        "code": "308189",
                        "display": "Amoxicillin 80 MG/ML Oral Suspension"
                     }
                  ],
                  "text": "Amoxicillin 80 MG/ML Oral Suspension"
               },
               "dosageInstruction": [
                  {
                     "text": "7 mL bid x 10 days",
                     "timing": {
                        "repeat": {
                           "boundsPeriod": {
                              "start": "2004-07-13"
                           },
                           "frequency": 2,
                           "period": 1,
                           "periodUnits": "d"
                        }
                     },
                     "doseQuantity": {
                        "value": 7,
                        "unit": "mL",
                        "system": "http://unitsofmeasure.org",
                        "code": "mL"
                     }
                  }
               ],
               "dispenseRequest": {
                  "numberOfRepeatsAllowed": 1,
                  "quantity": {
                     "value": 1,
                     "unit": "mL",
                     "system": "http://unitsofmeasure.org",
                     "code": "mL"
                  },
                  "expectedSupplyDuration": {
                     "value": 10,
                     "unit": "days",
                     "system": "http://unitsofmeasure.org",
                     "code": "d"
                  }
               }
            },
            "search": {
               "mode": "include"
            }
         },
         {
            "fullUrl": "http://165.227.51.4:9002/baseDstu2/MedicationDispense/smart-medicationdispense-1229",
            "resource": {
               "resourceType": "MedicationDispense",
               "id": "smart-medicationdispense-1229",
               "meta": {
                  "versionId": "1",
                  "lastUpdated": "2019-08-23T22:11:46.504+00:00",
                  "security": [
                     {
                        "system": "http://smarthealthit.org/security/categories",
                        "code": "medications"
                     },
                     {
                        "system": "http://smarthealthit.org/security/users",
                        "code": "Patient/smart-1081332"
                     }
                  ]
               },
               "text": {
                  "fhir_comments": [
                     "  insert contents here  "
                  ],
                  "status": "generated",
                  "div": "<div xmlns=\"http://www.w3.org/1999/xhtml\">      Dispensed 75 tablets = 7 day supply of Amoxicillin 80 MG/ML Oral Suspension    </div>"
               },
               "status": "completed",
               "patient": {
                  "reference": "Patient/smart-1081332"
               },
               "authorizingPrescription": [
                  {
                     "reference": "MedicationOrder/smart-medicationorder-102"
                  }
               ],
               "quantity": {
                  "value": 75,
                  "unit": "tablets",
                  "system": "http://unitsofmeasure.org",
                  "code": "{tablets}"
               },
               "daysSupply": {
                  "value": 7,
                  "unit": "days",
                  "system": "http://unitsofmeasure.org",
                  "code": "d"
               },
               "medicationCodeableConcept": {
                  "coding": [
                     {
                        "system": "http://www.nlm.nih.gov/research/umls/rxnorm",
                        "code": "308189",
                        "display": "Amoxicillin 80 MG/ML Oral Suspension"
                     }
                  ],
                  "text": "Amoxicillin 80 MG/ML Oral Suspension"
               },
               "whenHandedOver": "2004-07-13"
            },
            "search": {
               "mode": "match"
            }
         },
         {
            "fullUrl": "http://165.227.51.4:9002/baseDstu2/MedicationOrder/smart-medicationorder-103",
            "resource": {
               "resourceType": "MedicationOrder",
               "id": "smart-medicationorder-103",
               "meta": {
                  "versionId": "1",
                  "lastUpdated": "2019-08-23T22:11:46.504+00:00",
                  "security": [
                     {
                        "system": "http://smarthealthit.org/security/categories",
                        "code": "medications"
                     },
                     {
                        "system": "http://smarthealthit.org/security/users",
                        "code": "Patient/smart-1081332"
                     }
                  ]
               },
               "text": {
                  "status": "generated",
                  "div": "<div xmlns=\"http://www.w3.org/1999/xhtml\">      Amoxicillin 120 MG/ML / clavulanate potassium 8.58 MG/ML Oral Suspension (rxnorm: 617993)    </div>"
               },
               "status": "active",
               "patient": {
                  "reference": "Patient/smart-1081332"
               },
               "medicationCodeableConcept": {
                  "coding": [
                     {
                        "system": "http://www.nlm.nih.gov/research/umls/rxnorm",
                        "code": "617993",
                        "display": "Amoxicillin 120 MG/ML / clavulanate potassium 8.58 MG/ML Oral Suspension"
                     }
                  ],
                  "text": "Amoxicillin 120 MG/ML / clavulanate potassium 8.58 MG/ML Oral Suspension"
               },
               "dosageInstruction": [
                  {
                     "text": "5 mL bid x 10 days",
                     "timing": {
                        "repeat": {
                           "boundsPeriod": {
                              "start": "2005-01-04"
                           },
                           "frequency": 2,
                           "period": 1,
                           "periodUnits": "d"
                        }
                     },
                     "doseQuantity": {
                        "value": 5,
                        "unit": "mL",
                        "system": "http://unitsofmeasure.org",
                        "code": "mL"
                     }
                  }
               ],
               "dispenseRequest": {
                  "numberOfRepeatsAllowed": 1,
                  "quantity": {
                     "value": 1,
                     "unit": "mL",
                     "system": "http://unitsofmeasure.org",
                     "code": "mL"
                  },
                  "expectedSupplyDuration": {
                     "value": 10,
                     "unit": "days",
                     "system": "http://unitsofmeasure.org",
                     "code": "d"
                  }
               }
            },
            "search": {
               "mode": "include"
            }
         },
         {
            "fullUrl": "http://165.227.51.4:9002/baseDstu2/MedicationDispense/smart-medicationdispense-1236",
            "resource": {
               "resourceType": "MedicationDispense",
               "id": "smart-medicationdispense-1236",
               "meta": {
                  "versionId": "1",
                  "lastUpdated": "2019-08-23T22:11:46.504+00:00",
                  "security": [
                     {
                        "system": "http://smarthealthit.org/security/categories",
                        "code": "medications"
                     },
                     {
                        "system": "http://smarthealthit.org/security/users",
                        "code": "Patient/smart-1081332"
                     }
                  ]
               },
               "text": {
                  "fhir_comments": [
                     "  insert contents here  "
                  ],
                  "status": "generated",
                  "div": "<div xmlns=\"http://www.w3.org/1999/xhtml\">      Dispensed 75 tablets = 10 day supply of Amoxicillin 120 MG/ML / clavulanate potassium 8.58 MG/ML Oral Suspension    </div>"
               },
               "status": "completed",
               "patient": {
                  "reference": "Patient/smart-1081332"
               },
               "authorizingPrescription": [
                  {
                     "reference": "MedicationOrder/smart-medicationorder-103"
                  }
               ],
               "quantity": {
                  "value": 75,
                  "unit": "tablets",
                  "system": "http://unitsofmeasure.org",
                  "code": "{tablets}"
               },
               "daysSupply": {
                  "value": 10,
                  "unit": "days",
                  "system": "http://unitsofmeasure.org",
                  "code": "d"
               },
               "medicationCodeableConcept": {
                  "coding": [
                     {
                        "system": "http://www.nlm.nih.gov/research/umls/rxnorm",
                        "code": "617993",
                        "display": "Amoxicillin 120 MG/ML / clavulanate potassium 8.58 MG/ML Oral Suspension"
                     }
                  ],
                  "text": "Amoxicillin 120 MG/ML / clavulanate potassium 8.58 MG/ML Oral Suspension"
               },
               "whenHandedOver": "2005-01-04"
            },
            "search": {
               "mode": "match"
            }
         },
         {
            "fullUrl": "http://165.227.51.4:9002/baseDstu2/MedicationDispense/smart-medicationdispense-1237",
            "resource": {
               "resourceType": "MedicationDispense",
               "id": "smart-medicationdispense-1237",
               "meta": {
                  "versionId": "1",
                  "lastUpdated": "2019-08-23T22:11:46.504+00:00",
                  "security": [
                     {
                        "system": "http://smarthealthit.org/security/categories",
                        "code": "medications"
                     },
                     {
                        "system": "http://smarthealthit.org/security/users",
                        "code": "Patient/smart-1081332"
                     }
                  ]
               },
               "text": {
                  "fhir_comments": [
                     "  insert contents here  "
                  ],
                  "status": "generated",
                  "div": "<div xmlns=\"http://www.w3.org/1999/xhtml\">      Dispensed 125 tablets = 10 day supply of Amoxicillin 120 MG/ML / clavulanate potassium 8.58 MG/ML Oral Suspension    </div>"
               },
               "status": "completed",
               "patient": {
                  "reference": "Patient/smart-1081332"
               },
               "authorizingPrescription": [
                  {
                     "reference": "MedicationOrder/smart-medicationorder-103"
                  }
               ],
               "quantity": {
                  "value": 125,
                  "unit": "tablets",
                  "system": "http://unitsofmeasure.org",
                  "code": "{tablets}"
               },
               "daysSupply": {
                  "value": 10,
                  "unit": "days",
                  "system": "http://unitsofmeasure.org",
                  "code": "d"
               },
               "medicationCodeableConcept": {
                  "coding": [
                     {
                        "system": "http://www.nlm.nih.gov/research/umls/rxnorm",
                        "code": "617993",
                        "display": "Amoxicillin 120 MG/ML / clavulanate potassium 8.58 MG/ML Oral Suspension"
                     }
                  ],
                  "text": "Amoxicillin 120 MG/ML / clavulanate potassium 8.58 MG/ML Oral Suspension"
               },
               "whenHandedOver": "2005-02-07"
            },
            "search": {
               "mode": "match"
            }
         },
         {
            "fullUrl": "http://165.227.51.4:9002/baseDstu2/MedicationOrder/smart-medicationorder-104",
            "resource": {
               "resourceType": "MedicationOrder",
               "id": "smart-medicationorder-104",
               "meta": {
                  "versionId": "1",
                  "lastUpdated": "2019-08-23T22:11:46.504+00:00",
                  "security": [
                     {
                        "system": "http://smarthealthit.org/security/categories",
                        "code": "medications"
                     },
                     {
                        "system": "http://smarthealthit.org/security/users",
                        "code": "Patient/smart-1081332"
                     }
                  ]
               },
               "text": {
                  "status": "generated",
                  "div": "<div xmlns=\"http://www.w3.org/1999/xhtml\">      Azithromycin 20 MG/ML Oral Suspension [Zithromax] (rxnorm: 211307)    </div>"
               },
               "status": "active",
               "patient": {
                  "reference": "Patient/smart-1081332"
               },
               "medicationCodeableConcept": {
                  "coding": [
                     {
                        "system": "http://www.nlm.nih.gov/research/umls/rxnorm",
                        "code": "211307",
                        "display": "Azithromycin 20 MG/ML Oral Suspension [Zithromax]"
                     }
                  ],
                  "text": "Azithromycin 20 MG/ML Oral Suspension [Zithromax]"
               },
               "dosageInstruction": [
                  {
                     "text": "15 mL daily x 3 days",
                     "timing": {
                        "repeat": {
                           "boundsPeriod": {
                              "start": "2005-01-18"
                           },
                           "frequency": 1,
                           "period": 1,
                           "periodUnits": "d"
                        }
                     },
                     "doseQuantity": {
                        "value": 15,
                        "unit": "mL",
                        "system": "http://unitsofmeasure.org",
                        "code": "mL"
                     }
                  }
               ],
               "dispenseRequest": {
                  "numberOfRepeatsAllowed": 1,
                  "quantity": {
                     "value": 1,
                     "unit": "mL",
                     "system": "http://unitsofmeasure.org",
                     "code": "mL"
                  },
                  "expectedSupplyDuration": {
                     "value": 3,
                     "unit": "days",
                     "system": "http://unitsofmeasure.org",
                     "code": "d"
                  }
               }
            },
            "search": {
               "mode": "include"
            }
         },
         {
            "fullUrl": "http://165.227.51.4:9002/baseDstu2/MedicationDispense/smart-medicationdispense-1231",
            "resource": {
               "resourceType": "MedicationDispense",
               "id": "smart-medicationdispense-1231",
               "meta": {
                  "versionId": "1",
                  "lastUpdated": "2019-08-23T22:11:46.504+00:00",
                  "security": [
                     {
                        "system": "http://smarthealthit.org/security/categories",
                        "code": "medications"
                     },
                     {
                        "system": "http://smarthealthit.org/security/users",
                        "code": "Patient/smart-1081332"
                     }
                  ]
               },
               "text": {
                  "fhir_comments": [
                     "  insert contents here  "
                  ],
                  "status": "generated",
                  "div": "<div xmlns=\"http://www.w3.org/1999/xhtml\">      Dispensed 15 tablets = 5 day supply of Azithromycin 20 MG/ML Oral Suspension [Zithromax]    </div>"
               },
               "status": "completed",
               "patient": {
                  "reference": "Patient/smart-1081332"
               },
               "authorizingPrescription": [
                  {
                     "reference": "MedicationOrder/smart-medicationorder-104"
                  }
               ],
               "quantity": {
                  "value": 15,
                  "unit": "tablets",
                  "system": "http://unitsofmeasure.org",
                  "code": "{tablets}"
               },
               "daysSupply": {
                  "value": 5,
                  "unit": "days",
                  "system": "http://unitsofmeasure.org",
                  "code": "d"
               },
               "medicationCodeableConcept": {
                  "coding": [
                     {
                        "system": "http://www.nlm.nih.gov/research/umls/rxnorm",
                        "code": "211307",
                        "display": "Azithromycin 20 MG/ML Oral Suspension [Zithromax]"
                     }
                  ],
                  "text": "Azithromycin 20 MG/ML Oral Suspension [Zithromax]"
               },
               "whenHandedOver": "2005-01-18"
            },
            "search": {
               "mode": "match"
            }
         },
         {
            "fullUrl": "http://165.227.51.4:9002/baseDstu2/MedicationOrder/smart-medicationorder-105",
            "resource": {
               "resourceType": "MedicationOrder",
               "id": "smart-medicationorder-105",
               "meta": {
                  "versionId": "1",
                  "lastUpdated": "2019-08-23T22:11:46.504+00:00",
                  "security": [
                     {
                        "system": "http://smarthealthit.org/security/categories",
                        "code": "medications"
                     },
                     {
                        "system": "http://smarthealthit.org/security/users",
                        "code": "Patient/smart-1081332"
                     }
                  ]
               },
               "text": {
                  "status": "generated",
                  "div": "<div xmlns=\"http://www.w3.org/1999/xhtml\">      cefdinir 25 MG/ML Oral Suspension [Omnicef] (rxnorm: 261091)    </div>"
               },
               "status": "active",
               "patient": {
                  "reference": "Patient/smart-1081332"
               },
               "medicationCodeableConcept": {
                  "coding": [
                     {
                        "system": "http://www.nlm.nih.gov/research/umls/rxnorm",
                        "code": "261091",
                        "display": "cefdinir 25 MG/ML Oral Suspension [Omnicef]"
                     }
                  ],
                  "text": "cefdinir 25 MG/ML Oral Suspension [Omnicef]"
               },
               "dosageInstruction": [
                  {
                     "text": "7 mL bid x 10 days",
                     "timing": {
                        "repeat": {
                           "boundsPeriod": {
                              "start": "2005-01-28"
                           },
                           "frequency": 2,
                           "period": 1,
                           "periodUnits": "d"
                        }
                     },
                     "doseQuantity": {
                        "value": 7,
                        "unit": "mL",
                        "system": "http://unitsofmeasure.org",
                        "code": "mL"
                     }
                  }
               ],
               "dispenseRequest": {
                  "numberOfRepeatsAllowed": 1,
                  "quantity": {
                     "value": 1,
                     "unit": "mL",
                     "system": "http://unitsofmeasure.org",
                     "code": "mL"
                  },
                  "expectedSupplyDuration": {
                     "value": 10,
                     "unit": "days",
                     "system": "http://unitsofmeasure.org",
                     "code": "d"
                  }
               }
            },
            "search": {
               "mode": "include"
            }
         },
         {
            "fullUrl": "http://165.227.51.4:9002/baseDstu2/MedicationDispense/smart-medicationdispense-1227",
            "resource": {
               "resourceType": "MedicationDispense",
               "id": "smart-medicationdispense-1227",
               "meta": {
                  "versionId": "1",
                  "lastUpdated": "2019-08-23T22:11:46.504+00:00",
                  "security": [
                     {
                        "system": "http://smarthealthit.org/security/categories",
                        "code": "medications"
                     },
                     {
                        "system": "http://smarthealthit.org/security/users",
                        "code": "Patient/smart-1081332"
                     }
                  ]
               },
               "text": {
                  "fhir_comments": [
                     "  insert contents here  "
                  ],
                  "status": "generated",
                  "div": "<div xmlns=\"http://www.w3.org/1999/xhtml\">      Dispensed 60 tablets = 10 day supply of cefdinir 25 MG/ML Oral Suspension [Omnicef]    </div>"
               },
               "status": "completed",
               "patient": {
                  "reference": "Patient/smart-1081332"
               },
               "authorizingPrescription": [
                  {
                     "reference": "MedicationOrder/smart-medicationorder-105"
                  }
               ],
               "quantity": {
                  "value": 60,
                  "unit": "tablets",
                  "system": "http://unitsofmeasure.org",
                  "code": "{tablets}"
               },
               "daysSupply": {
                  "value": 10,
                  "unit": "days",
                  "system": "http://unitsofmeasure.org",
                  "code": "d"
               },
               "medicationCodeableConcept": {
                  "coding": [
                     {
                        "system": "http://www.nlm.nih.gov/research/umls/rxnorm",
                        "code": "261091",
                        "display": "cefdinir 25 MG/ML Oral Suspension [Omnicef]"
                     }
                  ],
                  "text": "cefdinir 25 MG/ML Oral Suspension [Omnicef]"
               },
               "whenHandedOver": "2005-01-28"
            },
            "search": {
               "mode": "match"
            }
         },
         {
            "fullUrl": "http://165.227.51.4:9002/baseDstu2/MedicationDispense/smart-medicationdispense-1228",
            "resource": {
               "resourceType": "MedicationDispense",
               "id": "smart-medicationdispense-1228",
               "meta": {
                  "versionId": "1",
                  "lastUpdated": "2019-08-23T22:11:46.504+00:00",
                  "security": [
                     {
                        "system": "http://smarthealthit.org/security/categories",
                        "code": "medications"
                     },
                     {
                        "system": "http://smarthealthit.org/security/users",
                        "code": "Patient/smart-1081332"
                     }
                  ]
               },
               "text": {
                  "fhir_comments": [
                     "  insert contents here  "
                  ],
                  "status": "generated",
                  "div": "<div xmlns=\"http://www.w3.org/1999/xhtml\">      Dispensed 60 tablets = 7 day supply of cefdinir 25 MG/ML Oral Suspension [Omnicef]    </div>"
               },
               "status": "completed",
               "patient": {
                  "reference": "Patient/smart-1081332"
               },
               "authorizingPrescription": [
                  {
                     "reference": "MedicationOrder/smart-medicationorder-105"
                  }
               ],
               "quantity": {
                  "value": 60,
                  "unit": "tablets",
                  "system": "http://unitsofmeasure.org",
                  "code": "{tablets}"
               },
               "daysSupply": {
                  "value": 7,
                  "unit": "days",
                  "system": "http://unitsofmeasure.org",
                  "code": "d"
               },
               "medicationCodeableConcept": {
                  "coding": [
                     {
                        "system": "http://www.nlm.nih.gov/research/umls/rxnorm",
                        "code": "261091",
                        "display": "cefdinir 25 MG/ML Oral Suspension [Omnicef]"
                     }
                  ],
                  "text": "cefdinir 25 MG/ML Oral Suspension [Omnicef]"
               },
               "whenHandedOver": "2005-03-11"
            },
            "search": {
               "mode": "match"
            }
         },
         {
            "fullUrl": "http://165.227.51.4:9002/baseDstu2/MedicationOrder/smart-medicationorder-106",
            "resource": {
               "resourceType": "MedicationOrder",
               "id": "smart-medicationorder-106",
               "meta": {
                  "versionId": "1",
                  "lastUpdated": "2019-08-23T22:11:46.504+00:00",
                  "security": [
                     {
                        "system": "http://smarthealthit.org/security/categories",
                        "code": "medications"
                     },
                     {
                        "system": "http://smarthealthit.org/security/users",
                        "code": "Patient/smart-1081332"
                     }
                  ]
               },
               "text": {
                  "status": "generated",
                  "div": "<div xmlns=\"http://www.w3.org/1999/xhtml\">      Ciprofloxacin 3 MG/ML / Dexamethasone 1 MG/ML Otic Suspension [Ciprodex] (rxnorm: 404630)    </div>"
               },
               "status": "active",
               "patient": {
                  "reference": "Patient/smart-1081332"
               },
               "medicationCodeableConcept": {
                  "coding": [
                     {
                        "system": "http://www.nlm.nih.gov/research/umls/rxnorm",
                        "code": "404630",
                        "display": "Ciprofloxacin 3 MG/ML / Dexamethasone 1 MG/ML Otic Suspension [Ciprodex]"
                     }
                  ],
                  "text": "Ciprofloxacin 3 MG/ML / Dexamethasone 1 MG/ML Otic Suspension [Ciprodex]"
               },
               "dosageInstruction": [
                  {
                     "text": "4 gtt in ear bid x7 days",
                     "timing": {
                        "repeat": {
                           "boundsPeriod": {
                              "start": "2005-03-11"
                           },
                           "frequency": 3,
                           "period": 1,
                           "periodUnits": "d"
                        }
                     },
                     "doseQuantity": {
                        "value": 4,
                        "unit": "[drp]",
                        "system": "http://unitsofmeasure.org",
                        "code": "[drp]"
                     }
                  }
               ],
               "dispenseRequest": {
                  "numberOfRepeatsAllowed": 1,
                  "quantity": {
                     "value": 1,
                     "unit": "[drp]",
                     "system": "http://unitsofmeasure.org",
                     "code": "[drp]"
                  },
                  "expectedSupplyDuration": {
                     "value": 7,
                     "unit": "days",
                     "system": "http://unitsofmeasure.org",
                     "code": "d"
                  }
               }
            },
            "search": {
               "mode": "include"
            }
         },
         {
            "fullUrl": "http://165.227.51.4:9002/baseDstu2/MedicationDispense/smart-medicationdispense-1230",
            "resource": {
               "resourceType": "MedicationDispense",
               "id": "smart-medicationdispense-1230",
               "meta": {
                  "versionId": "1",
                  "lastUpdated": "2019-08-23T22:11:46.504+00:00",
                  "security": [
                     {
                        "system": "http://smarthealthit.org/security/categories",
                        "code": "medications"
                     },
                     {
                        "system": "http://smarthealthit.org/security/users",
                        "code": "Patient/smart-1081332"
                     }
                  ]
               },
               "text": {
                  "fhir_comments": [
                     "  insert contents here  "
                  ],
                  "status": "generated",
                  "div": "<div xmlns=\"http://www.w3.org/1999/xhtml\">      Dispensed 7 tablets = 7 day supply of Ciprofloxacin 3 MG/ML / Dexamethasone 1 MG/ML Otic Suspension [Ciprodex]    </div>"
               },
               "status": "completed",
               "patient": {
                  "reference": "Patient/smart-1081332"
               },
               "authorizingPrescription": [
                  {
                     "reference": "MedicationOrder/smart-medicationorder-106"
                  }
               ],
               "quantity": {
                  "value": 7,
                  "unit": "tablets",
                  "system": "http://unitsofmeasure.org",
                  "code": "{tablets}"
               },
               "daysSupply": {
                  "value": 7,
                  "unit": "days",
                  "system": "http://unitsofmeasure.org",
                  "code": "d"
               },
               "medicationCodeableConcept": {
                  "coding": [
                     {
                        "system": "http://www.nlm.nih.gov/research/umls/rxnorm",
                        "code": "404630",
                        "display": "Ciprofloxacin 3 MG/ML / Dexamethasone 1 MG/ML Otic Suspension [Ciprodex]"
                     }
                  ],
                  "text": "Ciprofloxacin 3 MG/ML / Dexamethasone 1 MG/ML Otic Suspension [Ciprodex]"
               },
               "whenHandedOver": "2005-03-11"
            },
            "search": {
               "mode": "match"
            }
         },
         {
            "fullUrl": "http://165.227.51.4:9002/baseDstu2/MedicationOrder/smart-medicationorder-107",
            "resource": {
               "resourceType": "MedicationOrder",
               "id": "smart-medicationorder-107",
               "meta": {
                  "versionId": "1",
                  "lastUpdated": "2019-08-23T22:11:46.504+00:00",
                  "security": [
                     {
                        "system": "http://smarthealthit.org/security/categories",
                        "code": "medications"
                     },
                     {
                        "system": "http://smarthealthit.org/security/users",
                        "code": "Patient/smart-1081332"
                     }
                  ]
               },
               "text": {
                  "status": "generated",
                  "div": "<div xmlns=\"http://www.w3.org/1999/xhtml\">      Amoxicillin 50 MG/ML Oral Suspension (rxnorm: 239191)    </div>"
               },
               "status": "active",
               "patient": {
                  "reference": "Patient/smart-1081332"
               },
               "medicationCodeableConcept": {
                  "coding": [
                     {
                        "system": "http://www.nlm.nih.gov/research/umls/rxnorm",
                        "code": "239191",
                        "display": "Amoxicillin 50 MG/ML Oral Suspension"
                     }
                  ],
                  "text": "Amoxicillin 50 MG/ML Oral Suspension"
               },
               "dosageInstruction": [
                  {
                     "text": "10 mL bid x 10 days",
                     "timing": {
                        "repeat": {
                           "boundsPeriod": {
                              "start": "2007-06-06"
                           },
                           "frequency": 2,
                           "period": 1,
                           "periodUnits": "d"
                        }
                     },
                     "doseQuantity": {
                        "value": 10,
                        "unit": "mL",
                        "system": "http://unitsofmeasure.org",
                        "code": "mL"
                     }
                  }
               ],
               "dispenseRequest": {
                  "numberOfRepeatsAllowed": 1,
                  "quantity": {
                     "value": 1,
                     "unit": "mL",
                     "system": "http://unitsofmeasure.org",
                     "code": "mL"
                  },
                  "expectedSupplyDuration": {
                     "value": 10,
                     "unit": "days",
                     "system": "http://unitsofmeasure.org",
                     "code": "d"
                  }
               }
            },
            "search": {
               "mode": "match"
            }
         },
         {
            "fullUrl": "http://165.227.51.4:9002/baseDstu2/MedicationOrder/smart-medicationorder-108",
            "resource": {
               "resourceType": "MedicationOrder",
               "id": "smart-medicationorder-108",
               "meta": {
                  "versionId": "1",
                  "lastUpdated": "2019-08-23T22:11:46.504+00:00",
                  "security": [
                     {
                        "system": "http://smarthealthit.org/security/categories",
                        "code": "medications"
                     },
                     {
                        "system": "http://smarthealthit.org/security/users",
                        "code": "Patient/smart-1081332"
                     }
                  ]
               },
               "text": {
                  "status": "generated",
                  "div": "<div xmlns=\"http://www.w3.org/1999/xhtml\">      Sulfamethoxazole 40 MG/ML / Trimethoprim 8 MG/ML Oral Suspension [Sulfatrim] (rxnorm: 208406)    </div>"
               },
               "status": "active",
               "patient": {
                  "reference": "Patient/smart-1081332"
               },
               "medicationCodeableConcept": {
                  "coding": [
                     {
                        "system": "http://www.nlm.nih.gov/research/umls/rxnorm",
                        "code": "208406",
                        "display": "Sulfamethoxazole 40 MG/ML / Trimethoprim 8 MG/ML Oral Suspension [Sulfatrim]"
                     }
                  ],
                  "text": "Sulfamethoxazole 40 MG/ML / Trimethoprim 8 MG/ML Oral Suspension [Sulfatrim]"
               },
               "dosageInstruction": [
                  {
                     "text": "5 mL bid x 10 days",
                     "timing": {
                        "repeat": {
                           "boundsPeriod": {
                              "start": "2007-08-28"
                           },
                           "frequency": 2,
                           "period": 1,
                           "periodUnits": "d"
                        }
                     },
                     "doseQuantity": {
                        "value": 5,
                        "unit": "mL",
                        "system": "http://unitsofmeasure.org",
                        "code": "mL"
                     }
                  }
               ],
               "dispenseRequest": {
                  "numberOfRepeatsAllowed": 1,
                  "quantity": {
                     "value": 1,
                     "unit": "mL",
                     "system": "http://unitsofmeasure.org",
                     "code": "mL"
                  },
                  "expectedSupplyDuration": {
                     "value": 10,
                     "unit": "days",
                     "system": "http://unitsofmeasure.org",
                     "code": "d"
                  }
               }
            },
            "search": {
               "mode": "match"
            }
         },
         {
            "fullUrl": "http://165.227.51.4:9002/baseDstu2/Condition/smart-condition-448",
            "resource": {
               "resourceType": "Condition",
               "id": "smart-condition-448",
               "meta": {
                  "versionId": "1",
                  "lastUpdated": "2019-08-23T22:11:46.504+00:00",
                  "security": [
                     {
                        "system": "http://smarthealthit.org/security/users",
                        "code": "Patient/smart-1081332"
                     },
                     {
                        "system": "http://smarthealthit.org/security/categories",
                        "code": "problems"
                     }
                  ]
               },
               "text": {
                  "status": "generated",
                  "div": "<div xmlns=\"http://www.w3.org/1999/xhtml\">Single liveborn, born in hospital, delivered without mention of cesarean section</div>"
               },
               "patient": {
                  "reference": "Patient/smart-1081332"
               },
               "code": {
                  "coding": [
                     {
                        "system": "http://snomed.info/sct",
                        "code": "442311008",
                        "display": "Single liveborn, born in hospital, delivered without mention of cesarean section"
                     }
                  ],
                  "text": "Single liveborn, born in hospital, delivered without mention of cesarean section"
               },
               "clinicalStatus": "active",
               "verificationStatus": "confirmed",
               "onsetDateTime": "2004-04-12"
            },
            "search": {
               "mode": "match"
            }
         },
         {
            "fullUrl": "http://165.227.51.4:9002/baseDstu2/Condition/smart-condition-449",
            "resource": {
               "resourceType": "Condition",
               "id": "smart-condition-449",
               "meta": {
                  "versionId": "1",
                  "lastUpdated": "2019-08-23T22:11:46.504+00:00",
                  "security": [
                     {
                        "system": "http://smarthealthit.org/security/categories",
                        "code": "problems"
                     },
                     {
                        "system": "http://smarthealthit.org/security/users",
                        "code": "Patient/smart-1081332"
                     }
                  ]
               },
               "text": {
                  "status": "generated",
                  "div": "<div xmlns=\"http://www.w3.org/1999/xhtml\">Acute upper respiratory infection</div>"
               },
               "patient": {
                  "reference": "Patient/smart-1081332"
               },
               "code": {
                  "coding": [
                     {
                        "system": "http://snomed.info/sct",
                        "code": "54150009",
                        "display": "Acute upper respiratory infection"
                     }
                  ],
                  "text": "Acute upper respiratory infection"
               },
               "clinicalStatus": "active",
               "verificationStatus": "confirmed",
               "onsetDateTime": "2004-06-15"
            },
            "search": {
               "mode": "match"
            }
         },
         {
            "fullUrl": "http://165.227.51.4:9002/baseDstu2/Condition/smart-condition-450",
            "resource": {
               "resourceType": "Condition",
               "id": "smart-condition-450",
               "meta": {
                  "versionId": "1",
                  "lastUpdated": "2019-08-23T22:11:46.504+00:00",
                  "security": [
                     {
                        "system": "http://smarthealthit.org/security/users",
                        "code": "Patient/smart-1081332"
                     },
                     {
                        "system": "http://smarthealthit.org/security/categories",
                        "code": "problems"
                     }
                  ]
               },
               "text": {
                  "status": "generated",
                  "div": "<div xmlns=\"http://www.w3.org/1999/xhtml\">Otitis media</div>"
               },
               "patient": {
                  "reference": "Patient/smart-1081332"
               },
               "code": {
                  "coding": [
                     {
                        "system": "http://snomed.info/sct",
                        "code": "65363002",
                        "display": "Otitis media"
                     }
                  ],
                  "text": "Otitis media"
               },
               "clinicalStatus": "active",
               "verificationStatus": "confirmed",
               "onsetDateTime": "2004-07-13"
            },
            "search": {
               "mode": "match"
            }
         },
         {
            "fullUrl": "http://165.227.51.4:9002/baseDstu2/Condition/smart-condition-451",
            "resource": {
               "resourceType": "Condition",
               "id": "smart-condition-451",
               "meta": {
                  "versionId": "1",
                  "lastUpdated": "2019-08-23T22:11:46.504+00:00",
                  "security": [
                     {
                        "system": "http://smarthealthit.org/security/users",
                        "code": "Patient/smart-1081332"
                     },
                     {
                        "system": "http://smarthealthit.org/security/categories",
                        "code": "problems"
                     }
                  ]
               },
               "text": {
                  "status": "generated",
                  "div": "<div xmlns=\"http://www.w3.org/1999/xhtml\">Other diseases of nasal cavity and sinuses</div>"
               },
               "patient": {
                  "reference": "Patient/smart-1081332"
               },
               "code": {
                  "coding": [
                     {
                        "system": "http://snomed.info/sct",
                        "code": "68235000",
                        "display": "Other diseases of nasal cavity and sinuses"
                     }
                  ],
                  "text": "Other diseases of nasal cavity and sinuses"
               },
               "clinicalStatus": "active",
               "verificationStatus": "confirmed",
               "onsetDateTime": "2004-10-29"
            },
            "search": {
               "mode": "match"
            }
         },
         {
            "fullUrl": "http://165.227.51.4:9002/baseDstu2/Condition/smart-condition-452",
            "resource": {
               "resourceType": "Condition",
               "id": "smart-condition-452",
               "meta": {
                  "versionId": "1",
                  "lastUpdated": "2019-08-23T22:11:46.504+00:00",
                  "security": [
                     {
                        "system": "http://smarthealthit.org/security/categories",
                        "code": "problems"
                     },
                     {
                        "system": "http://smarthealthit.org/security/users",
                        "code": "Patient/smart-1081332"
                     }
                  ]
               },
               "text": {
                  "status": "generated",
                  "div": "<div xmlns=\"http://www.w3.org/1999/xhtml\">Other and unspecified noninfectious gastroenteritis and colitis</div>"
               },
               "patient": {
                  "reference": "Patient/smart-1081332"
               },
               "code": {
                  "coding": [
                     {
                        "system": "http://snomed.info/sct",
                        "code": "25374005",
                        "display": "Other and unspecified noninfectious gastroenteritis and colitis"
                     }
                  ],
                  "text": "Other and unspecified noninfectious gastroenteritis and colitis"
               },
               "clinicalStatus": "active",
               "verificationStatus": "confirmed",
               "onsetDateTime": "2004-12-05"
            },
            "search": {
               "mode": "match"
            }
         },
         {
            "fullUrl": "http://165.227.51.4:9002/baseDstu2/Condition/smart-condition-453",
            "resource": {
               "resourceType": "Condition",
               "id": "smart-condition-453",
               "meta": {
                  "versionId": "1",
                  "lastUpdated": "2019-08-23T22:11:46.504+00:00",
                  "security": [
                     {
                        "system": "http://smarthealthit.org/security/users",
                        "code": "Patient/smart-1081332"
                     },
                     {
                        "system": "http://smarthealthit.org/security/categories",
                        "code": "problems"
                     }
                  ]
               },
               "text": {
                  "status": "generated",
                  "div": "<div xmlns=\"http://www.w3.org/1999/xhtml\">Diarrhea</div>"
               },
               "patient": {
                  "reference": "Patient/smart-1081332"
               },
               "code": {
                  "coding": [
                     {
                        "system": "http://snomed.info/sct",
                        "code": "62315008",
                        "display": "Diarrhea"
                     }
                  ],
                  "text": "Diarrhea"
               },
               "clinicalStatus": "active",
               "verificationStatus": "confirmed",
               "onsetDateTime": "2004-12-07"
            },
            "search": {
               "mode": "match"
            }
         },
         {
            "fullUrl": "http://165.227.51.4:9002/baseDstu2/Condition/smart-condition-454",
            "resource": {
               "resourceType": "Condition",
               "id": "smart-condition-454",
               "meta": {
                  "versionId": "1",
                  "lastUpdated": "2019-08-23T22:11:46.504+00:00",
                  "security": [
                     {
                        "system": "http://smarthealthit.org/security/users",
                        "code": "Patient/smart-1081332"
                     },
                     {
                        "system": "http://smarthealthit.org/security/categories",
                        "code": "problems"
                     }
                  ]
               },
               "text": {
                  "status": "generated",
                  "div": "<div xmlns=\"http://www.w3.org/1999/xhtml\">Fever and other physiologic disturbances of temperature regulation</div>"
               },
               "patient": {
                  "reference": "Patient/smart-1081332"
               },
               "code": {
                  "coding": [
                     {
                        "system": "http://snomed.info/sct",
                        "code": "386661006",
                        "display": "Fever and other physiologic disturbances of temperature regulation"
                     }
                  ],
                  "text": "Fever and other physiologic disturbances of temperature regulation"
               },
               "clinicalStatus": "active",
               "verificationStatus": "confirmed",
               "onsetDateTime": "2004-12-07"
            },
            "search": {
               "mode": "match"
            }
         },
         {
            "fullUrl": "http://165.227.51.4:9002/baseDstu2/Condition/smart-condition-455",
            "resource": {
               "resourceType": "Condition",
               "id": "smart-condition-455",
               "meta": {
                  "versionId": "1",
                  "lastUpdated": "2019-08-23T22:11:46.504+00:00",
                  "security": [
                     {
                        "system": "http://smarthealthit.org/security/categories",
                        "code": "problems"
                     },
                     {
                        "system": "http://smarthealthit.org/security/users",
                        "code": "Patient/smart-1081332"
                     }
                  ]
               },
               "text": {
                  "status": "generated",
                  "div": "<div xmlns=\"http://www.w3.org/1999/xhtml\">Hypovolemia</div>"
               },
               "patient": {
                  "reference": "Patient/smart-1081332"
               },
               "code": {
                  "coding": [
                     {
                        "system": "http://snomed.info/sct",
                        "code": "34095006",
                        "display": "Hypovolemia"
                     }
                  ],
                  "text": "Hypovolemia"
               },
               "clinicalStatus": "active",
               "verificationStatus": "confirmed",
               "onsetDateTime": "2004-12-07"
            },
            "search": {
               "mode": "match"
            }
         },
         {
            "fullUrl": "http://165.227.51.4:9002/baseDstu2/Condition/smart-condition-456",
            "resource": {
               "resourceType": "Condition",
               "id": "smart-condition-456",
               "meta": {
                  "versionId": "1",
                  "lastUpdated": "2019-08-23T22:11:46.504+00:00",
                  "security": [
                     {
                        "system": "http://smarthealthit.org/security/categories",
                        "code": "problems"
                     },
                     {
                        "system": "http://smarthealthit.org/security/users",
                        "code": "Patient/smart-1081332"
                     }
                  ]
               },
               "text": {
                  "status": "generated",
                  "div": "<div xmlns=\"http://www.w3.org/1999/xhtml\">Pneumonia</div>"
               },
               "patient": {
                  "reference": "Patient/smart-1081332"
               },
               "code": {
                  "coding": [
                     {
                        "system": "http://snomed.info/sct",
                        "code": "233604007",
                        "display": "Pneumonia"
                     }
                  ],
                  "text": "Pneumonia"
               },
               "clinicalStatus": "active",
               "verificationStatus": "confirmed",
               "onsetDateTime": "2004-12-07"
            },
            "search": {
               "mode": "match"
            }
         },
         {
            "fullUrl": "http://165.227.51.4:9002/baseDstu2/Condition/smart-condition-457",
            "resource": {
               "resourceType": "Condition",
               "id": "smart-condition-457",
               "meta": {
                  "versionId": "1",
                  "lastUpdated": "2019-08-23T22:11:46.504+00:00",
                  "security": [
                     {
                        "system": "http://smarthealthit.org/security/users",
                        "code": "Patient/smart-1081332"
                     },
                     {
                        "system": "http://smarthealthit.org/security/categories",
                        "code": "problems"
                     }
                  ]
               },
               "text": {
                  "status": "generated",
                  "div": "<div xmlns=\"http://www.w3.org/1999/xhtml\">Vomiting</div>"
               },
               "patient": {
                  "reference": "Patient/smart-1081332"
               },
               "code": {
                  "coding": [
                     {
                        "system": "http://snomed.info/sct",
                        "code": "422400008",
                        "display": "Vomiting"
                     }
                  ],
                  "text": "Vomiting"
               },
               "clinicalStatus": "active",
               "verificationStatus": "confirmed",
               "onsetDateTime": "2004-12-08"
            },
            "search": {
               "mode": "match"
            }
         },
         {
            "fullUrl": "http://165.227.51.4:9002/baseDstu2/Condition/smart-condition-458",
            "resource": {
               "resourceType": "Condition",
               "id": "smart-condition-458",
               "meta": {
                  "versionId": "1",
                  "lastUpdated": "2019-08-23T22:11:46.504+00:00",
                  "security": [
                     {
                        "system": "http://smarthealthit.org/security/users",
                        "code": "Patient/smart-1081332"
                     },
                     {
                        "system": "http://smarthealthit.org/security/categories",
                        "code": "problems"
                     }
                  ]
               },
               "text": {
                  "status": "generated",
                  "div": "<div xmlns=\"http://www.w3.org/1999/xhtml\">Chronic serous otitis media</div>"
               },
               "patient": {
                  "reference": "Patient/smart-1081332"
               },
               "code": {
                  "coding": [
                     {
                        "system": "http://snomed.info/sct",
                        "code": "81564005",
                        "display": "Chronic serous otitis media"
                     }
                  ],
                  "text": "Chronic serous otitis media"
               },
               "clinicalStatus": "active",
               "verificationStatus": "confirmed",
               "onsetDateTime": "2005-02-22"
            },
            "search": {
               "mode": "match"
            }
         },
         {
            "fullUrl": "http://165.227.51.4:9002/baseDstu2/Condition/smart-condition-459",
            "resource": {
               "resourceType": "Condition",
               "id": "smart-condition-459",
               "meta": {
                  "versionId": "1",
                  "lastUpdated": "2019-08-23T22:11:46.504+00:00",
                  "security": [
                     {
                        "system": "http://smarthealthit.org/security/categories",
                        "code": "problems"
                     },
                     {
                        "system": "http://smarthealthit.org/security/users",
                        "code": "Patient/smart-1081332"
                     }
                  ]
               },
               "text": {
                  "status": "generated",
                  "div": "<div xmlns=\"http://www.w3.org/1999/xhtml\">Acute secretory otitis media</div>"
               },
               "patient": {
                  "reference": "Patient/smart-1081332"
               },
               "code": {
                  "coding": [
                     {
                        "system": "http://snomed.info/sct",
                        "code": "35183001",
                        "display": "Acute secretory otitis media"
                     }
                  ],
                  "text": "Acute secretory otitis media"
               },
               "clinicalStatus": "active",
               "verificationStatus": "confirmed",
               "onsetDateTime": "2007-06-20"
            },
            "search": {
               "mode": "match"
            }
         },
         {
            "fullUrl": "http://165.227.51.4:9002/baseDstu2/Observation/smart-observation-6-smokingstatus",
            "resource": {
               "resourceType": "Observation",
               "id": "smart-observation-6-smokingstatus",
               "meta": {
                  "versionId": "1",
                  "lastUpdated": "2019-08-23T22:11:46.504+00:00",
                  "security": [
                     {
                        "system": "http://smarthealthit.org/security/users",
                        "code": "Patient/smart-1081332"
                     },
                     {
                        "system": "http://smarthealthit.org/security/categories",
                        "code": "smoking"
                     }
                  ]
               },
               "text": {
                  "status": "generated",
                  "div": "<div xmlns=\"http://www.w3.org/1999/xhtml\">Tobacco smoking status: Former smoker</div>"
               },
               "status": "final",
               "category": {
                  "coding": [
                     {
                        "system": "http://hl7.org/fhir/observation-category",
                        "code": "social-history",
                        "display": "Social History"
                     }
                  ],
                  "text": "Social History"
               },
               "code": {
                  "coding": [
                     {
                        "system": "http://loinc.org",
                        "code": "72166-2",
                        "display": "Tobacco smoking status"
                     }
                  ],
                  "text": "Tobacco smoking status"
               },
               "subject": {
                  "reference": "Patient/smart-1081332"
               },
               "valueCodeableConcept": {
                  "coding": [
                     {
                        "system": "http://snomed.info/sct",
                        "code": "8517006",
                        "display": "Former smoker"
                     }
                  ],
                  "text": "Former smoker"
               }
            },
            "search": {
               "mode": "match"
            }
         },
         {
            "fullUrl": "http://165.227.51.4:9002/baseDstu2/List/smart-list-20",
            "resource": {
               "resourceType": "List",
               "id": "smart-list-20",
               "meta": {
                  "versionId": "1",
                  "lastUpdated": "2019-08-23T22:11:46.504+00:00"
               },
               "text": {
                  "status": "generated",
                  "div": "<div xmlns=\"http://www.w3.org/1999/xhtml\">No known allergies</div>"
               },
               "code": {
                  "coding": [
                     {
                        "system": "http://loinc.org/",
                        "code": "52473-6",
                        "display": "Allergy"
                     }
                  ],
                  "text": "Allergy"
               },
               "subject": {
                  "reference": "Patient/smart-1081332"
               },
               "date": "2000",
               "mode": "snapshot",
               "emptyReason": {
                  "coding": [
                     {
                        "system": "http://hl7.org/fhir/list-empty-reason",
                        "code": "nilknown",
                        "display": "Nil Known"
                     }
                  ],
                  "text": "Nil Known"
               }
            },
            "search": {
               "mode": "match"
            }
         }
      ]
   }