{
      "resourceType": "Bundle",
      "id": "019606b7-6740-47ba-8a6d-7082004ff9ec",
      "meta": {
         "lastUpdated": "2020-07-25T16:55:40.514+00:00"
      },
      "type": "searchset",
      "total": 80,
      "link": [
         {
            "relation": "self",
            "url": "http://165.227.51.4:9002/baseDstu2/Patient/smart-1157764/$everything?_count=50"
         }
      ],
      "entry": [
         {
            "fullUrl": "http://165.227.51.4:9002/baseDstu2/Patient/smart-1157764",
            "resource": {
               "resourceType": "Patient",
               "id": "smart-1157764",
               "meta": {
                  "versionId": "1",
                  "lastUpdated": "2019-08-23T22:11:57.615+00:00",
                  "security": [
                     {
                        "system": "http://smarthealthit.org/security/users",
                        "code": "Patient/smart-1157764"
                     },
                     {
                        "system": "http://smarthealthit.org/security/categories",
                        "code": "patient"
                     }
                  ]
               },
               "text": {
                  "status": "generated",
                  "div": "<div xmlns=\"http://www.w3.org/1999/xhtml\">        <p>Carol Hughes</p>      </div>"
               },
               "identifier": [
                  {
                     "use": "usual",
                     "type": {
                        "coding": [
                           {
                              "system": "http://hl7.org/fhir/v2/0203",
                              "code": "MR",
                              "display": "Medical record number"
                           }
                        ],
                        "text": "Medical record number"
                     },
                     "system": "http://hospital.smarthealthit.org",
                     "value": "1157764"
                  }
               ],
               "active": true,
               "name": [
                  {
                     "use": "official",
                     "family": [
                        "Hughes"
                     ],
                     "given": [
                        "Carol",
                        "U."
                     ]
                  }
               ],
               "telecom": [
                  {
                     "system": "phone",
                     "value": "800-971-5389",
                     "use": "mobile"
                  },
                  {
                     "system": "email",
                     "value": "carol.hughes@example.com"
                  }
               ],
               "gender": "female",
               "birthDate": "1949-11-04",
               "address": [
                  {
                     "use": "home",
                     "line": [
                        "36 South St"
                     ],
                     "city": "Tulsa",
                     "state": "OK",
                     "postalCode": "74108",
                     "country": "USA"
                  }
               ]
            },
            "search": {
               "mode": "include"
            }
         },
         {
            "fullUrl": "http://165.227.51.4:9002/baseDstu2/Observation/smart-observation-1842-lab",
            "resource": {
               "resourceType": "Observation",
               "id": "smart-observation-1842-lab",
               "meta": {
                  "versionId": "1",
                  "lastUpdated": "2019-08-23T22:11:57.615+00:00",
                  "security": [
                     {
                        "system": "http://smarthealthit.org/security/users",
                        "code": "Patient/smart-1157764"
                     },
                     {
                        "system": "http://smarthealthit.org/security/categories",
                        "code": "laboratory"
                     }
                  ]
               },
               "text": {
                  "status": "generated",
                  "div": "<div xmlns=\"http://www.w3.org/1999/xhtml\">2004-07-23: LDLc SerPl Calc-mCnc = 101 mg/dL</div>"
               },
               "status": "final",
               "category": {
                  "coding": [
                     {
                        "system": "http://hl7.org/fhir/observation-category",
                        "code": "laboratory",
                        "display": "Laboratory"
                     }
                  ],
                  "text": "Laboratory"
               },
               "code": {
                  "coding": [
                     {
                        "system": "http://loinc.org",
                        "code": "13457-7",
                        "display": "LDLc SerPl Calc-mCnc"
                     }
                  ],
                  "text": "LDLc SerPl Calc-mCnc"
               },
               "subject": {
                  "reference": "Patient/smart-1157764"
               },
               "effectiveDateTime": "2004-07-23",
               "valueQuantity": {
                  "value": 101,
                  "unit": "mg/dL",
                  "system": "http://unitsofmeasure.org"
               },
               "referenceRange": [
                  {
                     "low": {
                        "value": 0,
                        "unit": "mg/dL",
                        "system": "http://unitsofmeasure.org",
                        "code": "mg/dL"
                     },
                     "high": {
                        "value": 100,
                        "unit": "mg/dL",
                        "system": "http://unitsofmeasure.org",
                        "code": "mg/dL"
                     },
                     "meaning": {
                        "coding": [
                           {
                              "system": "http://hl7.org/fhir/referencerange-meaning",
                              "code": "normal",
                              "display": "Normal Range"
                           }
                        ],
                        "text": "Normal Range"
                     }
                  }
               ]
            },
            "search": {
               "mode": "match"
            }
         },
         {
            "fullUrl": "http://165.227.51.4:9002/baseDstu2/Observation/smart-observation-1843-lab",
            "resource": {
               "resourceType": "Observation",
               "id": "smart-observation-1843-lab",
               "meta": {
                  "versionId": "1",
                  "lastUpdated": "2019-08-23T22:11:57.615+00:00",
                  "security": [
                     {
                        "system": "http://smarthealthit.org/security/users",
                        "code": "Patient/smart-1157764"
                     },
                     {
                        "system": "http://smarthealthit.org/security/categories",
                        "code": "laboratory"
                     }
                  ]
               },
               "text": {
                  "status": "generated",
                  "div": "<div xmlns=\"http://www.w3.org/1999/xhtml\">2004-07-23: TSH SerPl DL<=0.005 mU/L-aCnc = 3.548 mcU/mL</div>"
               },
               "status": "final",
               "category": {
                  "coding": [
                     {
                        "system": "http://hl7.org/fhir/observation-category",
                        "code": "laboratory",
                        "display": "Laboratory"
                     }
                  ],
                  "text": "Laboratory"
               },
               "code": {
                  "coding": [
                     {
                        "system": "http://loinc.org",
                        "code": "11580-8",
                        "display": "TSH SerPl DL<=0.005 mU/L-aCnc"
                     }
                  ],
                  "text": "TSH SerPl DL<=0.005 mU/L-aCnc"
               },
               "subject": {
                  "reference": "Patient/smart-1157764"
               },
               "effectiveDateTime": "2004-07-23",
               "valueQuantity": {
                  "value": 3.548,
                  "unit": "mcU/mL",
                  "system": "http://unitsofmeasure.org"
               },
               "referenceRange": [
                  {
                     "low": {
                        "value": 0.4,
                        "unit": "mcU/mL",
                        "system": "http://unitsofmeasure.org",
                        "code": "mcU/mL"
                     },
                     "high": {
                        "value": 4.2,
                        "unit": "mcU/mL",
                        "system": "http://unitsofmeasure.org",
                        "code": "mcU/mL"
                     },
                     "meaning": {
                        "coding": [
                           {
                              "system": "http://hl7.org/fhir/referencerange-meaning",
                              "code": "normal",
                              "display": "Normal Range"
                           }
                        ],
                        "text": "Normal Range"
                     }
                  }
               ]
            },
            "search": {
               "mode": "match"
            }
         },
         {
            "fullUrl": "http://165.227.51.4:9002/baseDstu2/Observation/smart-observation-1844-lab",
            "resource": {
               "resourceType": "Observation",
               "id": "smart-observation-1844-lab",
               "meta": {
                  "versionId": "1",
                  "lastUpdated": "2019-08-23T22:11:57.615+00:00",
                  "security": [
                     {
                        "system": "http://smarthealthit.org/security/categories",
                        "code": "laboratory"
                     },
                     {
                        "system": "http://smarthealthit.org/security/users",
                        "code": "Patient/smart-1157764"
                     }
                  ]
               },
               "text": {
                  "status": "generated",
                  "div": "<div xmlns=\"http://www.w3.org/1999/xhtml\">2004-07-23: HDLc SerPl-mCnc = 66 mg/dL</div>"
               },
               "status": "final",
               "category": {
                  "coding": [
                     {
                        "system": "http://hl7.org/fhir/observation-category",
                        "code": "laboratory",
                        "display": "Laboratory"
                     }
                  ],
                  "text": "Laboratory"
               },
               "code": {
                  "coding": [
                     {
                        "system": "http://loinc.org",
                        "code": "2085-9",
                        "display": "HDLc SerPl-mCnc"
                     }
                  ],
                  "text": "HDLc SerPl-mCnc"
               },
               "subject": {
                  "reference": "Patient/smart-1157764"
               },
               "effectiveDateTime": "2004-07-23",
               "valueQuantity": {
                  "value": 66,
                  "unit": "mg/dL",
                  "system": "http://unitsofmeasure.org"
               },
               "referenceRange": [
                  {
                     "low": {
                        "value": 0,
                        "unit": "mg/dL",
                        "system": "http://unitsofmeasure.org",
                        "code": "mg/dL"
                     },
                     "high": {
                        "value": 0,
                        "unit": "mg/dL",
                        "system": "http://unitsofmeasure.org",
                        "code": "mg/dL"
                     },
                     "meaning": {
                        "coding": [
                           {
                              "system": "http://hl7.org/fhir/referencerange-meaning",
                              "code": "normal",
                              "display": "Normal Range"
                           }
                        ],
                        "text": "Normal Range"
                     }
                  }
               ]
            },
            "search": {
               "mode": "match"
            }
         },
         {
            "fullUrl": "http://165.227.51.4:9002/baseDstu2/Observation/smart-observation-1845-lab",
            "resource": {
               "resourceType": "Observation",
               "id": "smart-observation-1845-lab",
               "meta": {
                  "versionId": "1",
                  "lastUpdated": "2019-08-23T22:11:57.615+00:00",
                  "security": [
                     {
                        "system": "http://smarthealthit.org/security/users",
                        "code": "Patient/smart-1157764"
                     },
                     {
                        "system": "http://smarthealthit.org/security/categories",
                        "code": "laboratory"
                     }
                  ]
               },
               "text": {
                  "status": "generated",
                  "div": "<div xmlns=\"http://www.w3.org/1999/xhtml\">2004-07-23: Trigl SerPl-mCnc = 72 mg/dL</div>"
               },
               "status": "final",
               "category": {
                  "coding": [
                     {
                        "system": "http://hl7.org/fhir/observation-category",
                        "code": "laboratory",
                        "display": "Laboratory"
                     }
                  ],
                  "text": "Laboratory"
               },
               "code": {
                  "coding": [
                     {
                        "system": "http://loinc.org",
                        "code": "2571-8",
                        "display": "Trigl SerPl-mCnc"
                     }
                  ],
                  "text": "Trigl SerPl-mCnc"
               },
               "subject": {
                  "reference": "Patient/smart-1157764"
               },
               "effectiveDateTime": "2004-07-23",
               "valueQuantity": {
                  "value": 72,
                  "unit": "mg/dL",
                  "system": "http://unitsofmeasure.org"
               },
               "referenceRange": [
                  {
                     "low": {
                        "value": 0,
                        "unit": "mg/dL",
                        "system": "http://unitsofmeasure.org",
                        "code": "mg/dL"
                     },
                     "high": {
                        "value": 150,
                        "unit": "mg/dL",
                        "system": "http://unitsofmeasure.org",
                        "code": "mg/dL"
                     },
                     "meaning": {
                        "coding": [
                           {
                              "system": "http://hl7.org/fhir/referencerange-meaning",
                              "code": "normal",
                              "display": "Normal Range"
                           }
                        ],
                        "text": "Normal Range"
                     }
                  }
               ]
            },
            "search": {
               "mode": "match"
            }
         },
         {
            "fullUrl": "http://165.227.51.4:9002/baseDstu2/Observation/smart-observation-1846-lab",
            "resource": {
               "resourceType": "Observation",
               "id": "smart-observation-1846-lab",
               "meta": {
                  "versionId": "1",
                  "lastUpdated": "2019-08-23T22:11:57.615+00:00",
                  "security": [
                     {
                        "system": "http://smarthealthit.org/security/users",
                        "code": "Patient/smart-1157764"
                     },
                     {
                        "system": "http://smarthealthit.org/security/categories",
                        "code": "laboratory"
                     }
                  ]
               },
               "text": {
                  "status": "generated",
                  "div": "<div xmlns=\"http://www.w3.org/1999/xhtml\">2004-07-23: Cholest SerPl-mCnc = 181 mg/dL</div>"
               },
               "status": "final",
               "category": {
                  "coding": [
                     {
                        "system": "http://hl7.org/fhir/observation-category",
                        "code": "laboratory",
                        "display": "Laboratory"
                     }
                  ],
                  "text": "Laboratory"
               },
               "code": {
                  "coding": [
                     {
                        "system": "http://loinc.org",
                        "code": "2093-3",
                        "display": "Cholest SerPl-mCnc"
                     }
                  ],
                  "text": "Cholest SerPl-mCnc"
               },
               "subject": {
                  "reference": "Patient/smart-1157764"
               },
               "effectiveDateTime": "2004-07-23",
               "valueQuantity": {
                  "value": 181,
                  "unit": "mg/dL",
                  "system": "http://unitsofmeasure.org"
               },
               "referenceRange": [
                  {
                     "low": {
                        "value": 0,
                        "unit": "mg/dL",
                        "system": "http://unitsofmeasure.org",
                        "code": "mg/dL"
                     },
                     "high": {
                        "value": 200,
                        "unit": "mg/dL",
                        "system": "http://unitsofmeasure.org",
                        "code": "mg/dL"
                     },
                     "meaning": {
                        "coding": [
                           {
                              "system": "http://hl7.org/fhir/referencerange-meaning",
                              "code": "normal",
                              "display": "Normal Range"
                           }
                        ],
                        "text": "Normal Range"
                     }
                  }
               ]
            },
            "search": {
               "mode": "match"
            }
         },
         {
            "fullUrl": "http://165.227.51.4:9002/baseDstu2/Observation/smart-observation-1847-lab",
            "resource": {
               "resourceType": "Observation",
               "id": "smart-observation-1847-lab",
               "meta": {
                  "versionId": "1",
                  "lastUpdated": "2019-08-23T22:11:57.615+00:00",
                  "security": [
                     {
                        "system": "http://smarthealthit.org/security/categories",
                        "code": "laboratory"
                     },
                     {
                        "system": "http://smarthealthit.org/security/users",
                        "code": "Patient/smart-1157764"
                     }
                  ]
               },
               "text": {
                  "status": "generated",
                  "div": "<div xmlns=\"http://www.w3.org/1999/xhtml\">2006-10-30: pH Ur Strip = 5 [pH]</div>"
               },
               "status": "final",
               "category": {
                  "coding": [
                     {
                        "system": "http://hl7.org/fhir/observation-category",
                        "code": "laboratory",
                        "display": "Laboratory"
                     }
                  ],
                  "text": "Laboratory"
               },
               "code": {
                  "coding": [
                     {
                        "system": "http://loinc.org",
                        "code": "5803-2",
                        "display": "pH Ur Strip"
                     }
                  ],
                  "text": "pH Ur Strip"
               },
               "subject": {
                  "reference": "Patient/smart-1157764"
               },
               "effectiveDateTime": "2006-10-30",
               "valueQuantity": {
                  "value": 5,
                  "unit": "[pH]",
                  "system": "http://unitsofmeasure.org"
               },
               "referenceRange": [
                  {
                     "low": {
                        "value": 5,
                        "unit": "[pH]",
                        "system": "http://unitsofmeasure.org",
                        "code": "[pH]"
                     },
                     "high": {
                        "value": 8,
                        "unit": "[pH]",
                        "system": "http://unitsofmeasure.org",
                        "code": "[pH]"
                     },
                     "meaning": {
                        "coding": [
                           {
                              "system": "http://hl7.org/fhir/referencerange-meaning",
                              "code": "normal",
                              "display": "Normal Range"
                           }
                        ],
                        "text": "Normal Range"
                     }
                  }
               ]
            },
            "search": {
               "mode": "match"
            }
         },
         {
            "fullUrl": "http://165.227.51.4:9002/baseDstu2/Observation/smart-observation-1848-lab",
            "resource": {
               "resourceType": "Observation",
               "id": "smart-observation-1848-lab",
               "meta": {
                  "versionId": "1",
                  "lastUpdated": "2019-08-23T22:11:57.615+00:00",
                  "security": [
                     {
                        "system": "http://smarthealthit.org/security/users",
                        "code": "Patient/smart-1157764"
                     },
                     {
                        "system": "http://smarthealthit.org/security/categories",
                        "code": "laboratory"
                     }
                  ]
               },
               "text": {
                  "status": "generated",
                  "div": "<div xmlns=\"http://www.w3.org/1999/xhtml\">2006-10-30: Prot Ur Strip-mCnc = 0 mg/dL</div>"
               },
               "status": "final",
               "category": {
                  "coding": [
                     {
                        "system": "http://hl7.org/fhir/observation-category",
                        "code": "laboratory",
                        "display": "Laboratory"
                     }
                  ],
                  "text": "Laboratory"
               },
               "code": {
                  "coding": [
                     {
                        "system": "http://loinc.org",
                        "code": "5804-0",
                        "display": "Prot Ur Strip-mCnc"
                     }
                  ],
                  "text": "Prot Ur Strip-mCnc"
               },
               "subject": {
                  "reference": "Patient/smart-1157764"
               },
               "effectiveDateTime": "2006-10-30",
               "valueQuantity": {
                  "value": 0,
                  "unit": "mg/dL",
                  "system": "http://unitsofmeasure.org"
               },
               "referenceRange": [
                  {
                     "low": {
                        "value": 0,
                        "unit": "mg/dL",
                        "system": "http://unitsofmeasure.org",
                        "code": "mg/dL"
                     },
                     "high": {
                        "value": 0,
                        "unit": "mg/dL",
                        "system": "http://unitsofmeasure.org",
                        "code": "mg/dL"
                     },
                     "meaning": {
                        "coding": [
                           {
                              "system": "http://hl7.org/fhir/referencerange-meaning",
                              "code": "normal",
                              "display": "Normal Range"
                           }
                        ],
                        "text": "Normal Range"
                     }
                  }
               ]
            },
            "search": {
               "mode": "match"
            }
         },
         {
            "fullUrl": "http://165.227.51.4:9002/baseDstu2/Observation/smart-observation-1849-lab",
            "resource": {
               "resourceType": "Observation",
               "id": "smart-observation-1849-lab",
               "meta": {
                  "versionId": "1",
                  "lastUpdated": "2019-08-23T22:11:57.615+00:00",
                  "security": [
                     {
                        "system": "http://smarthealthit.org/security/users",
                        "code": "Patient/smart-1157764"
                     },
                     {
                        "system": "http://smarthealthit.org/security/categories",
                        "code": "laboratory"
                     }
                  ]
               },
               "text": {
                  "status": "generated",
                  "div": "<div xmlns=\"http://www.w3.org/1999/xhtml\">2006-10-30: RBC #/area UrnS HPF = 1 /[HPF]</div>"
               },
               "status": "final",
               "category": {
                  "coding": [
                     {
                        "system": "http://hl7.org/fhir/observation-category",
                        "code": "laboratory",
                        "display": "Laboratory"
                     }
                  ],
                  "text": "Laboratory"
               },
               "code": {
                  "coding": [
                     {
                        "system": "http://loinc.org",
                        "code": "13945-1",
                        "display": "RBC #/area UrnS HPF"
                     }
                  ],
                  "text": "RBC #/area UrnS HPF"
               },
               "subject": {
                  "reference": "Patient/smart-1157764"
               },
               "effectiveDateTime": "2006-10-30",
               "valueQuantity": {
                  "value": 1,
                  "unit": "/[HPF]",
                  "system": "http://unitsofmeasure.org"
               },
               "referenceRange": [
                  {
                     "low": {
                        "value": 0,
                        "unit": "/[HPF]",
                        "system": "http://unitsofmeasure.org",
                        "code": "/[HPF]"
                     },
                     "high": {
                        "value": 2,
                        "unit": "/[HPF]",
                        "system": "http://unitsofmeasure.org",
                        "code": "/[HPF]"
                     },
                     "meaning": {
                        "coding": [
                           {
                              "system": "http://hl7.org/fhir/referencerange-meaning",
                              "code": "normal",
                              "display": "Normal Range"
                           }
                        ],
                        "text": "Normal Range"
                     }
                  }
               ]
            },
            "search": {
               "mode": "match"
            }
         },
         {
            "fullUrl": "http://165.227.51.4:9002/baseDstu2/Observation/smart-observation-1850-lab",
            "resource": {
               "resourceType": "Observation",
               "id": "smart-observation-1850-lab",
               "meta": {
                  "versionId": "1",
                  "lastUpdated": "2019-08-23T22:11:57.615+00:00",
                  "security": [
                     {
                        "system": "http://smarthealthit.org/security/users",
                        "code": "Patient/smart-1157764"
                     },
                     {
                        "system": "http://smarthealthit.org/security/categories",
                        "code": "laboratory"
                     }
                  ]
               },
               "text": {
                  "status": "generated",
                  "div": "<div xmlns=\"http://www.w3.org/1999/xhtml\">2006-10-30: WBC #/area UrnS HPF = 1 /[HPF]</div>"
               },
               "status": "final",
               "category": {
                  "coding": [
                     {
                        "system": "http://hl7.org/fhir/observation-category",
                        "code": "laboratory",
                        "display": "Laboratory"
                     }
                  ],
                  "text": "Laboratory"
               },
               "code": {
                  "coding": [
                     {
                        "system": "http://loinc.org",
                        "code": "5821-4",
                        "display": "WBC #/area UrnS HPF"
                     }
                  ],
                  "text": "WBC #/area UrnS HPF"
               },
               "subject": {
                  "reference": "Patient/smart-1157764"
               },
               "effectiveDateTime": "2006-10-30",
               "valueQuantity": {
                  "value": 1,
                  "unit": "/[HPF]",
                  "system": "http://unitsofmeasure.org"
               },
               "referenceRange": [
                  {
                     "low": {
                        "value": 0,
                        "unit": "/[HPF]",
                        "system": "http://unitsofmeasure.org",
                        "code": "/[HPF]"
                     },
                     "high": {
                        "value": 5,
                        "unit": "/[HPF]",
                        "system": "http://unitsofmeasure.org",
                        "code": "/[HPF]"
                     },
                     "meaning": {
                        "coding": [
                           {
                              "system": "http://hl7.org/fhir/referencerange-meaning",
                              "code": "normal",
                              "display": "Normal Range"
                           }
                        ],
                        "text": "Normal Range"
                     }
                  }
               ]
            },
            "search": {
               "mode": "match"
            }
         },
         {
            "fullUrl": "http://165.227.51.4:9002/baseDstu2/Observation/smart-observation-1851-lab",
            "resource": {
               "resourceType": "Observation",
               "id": "smart-observation-1851-lab",
               "meta": {
                  "versionId": "1",
                  "lastUpdated": "2019-08-23T22:11:57.615+00:00",
                  "security": [
                     {
                        "system": "http://smarthealthit.org/security/users",
                        "code": "Patient/smart-1157764"
                     },
                     {
                        "system": "http://smarthealthit.org/security/categories",
                        "code": "laboratory"
                     }
                  ]
               },
               "text": {
                  "status": "generated",
                  "div": "<div xmlns=\"http://www.w3.org/1999/xhtml\">2006-10-30: Bacteria #/area UrnS HPF = 44 /[HPF]</div>"
               },
               "status": "final",
               "category": {
                  "coding": [
                     {
                        "system": "http://hl7.org/fhir/observation-category",
                        "code": "laboratory",
                        "display": "Laboratory"
                     }
                  ],
                  "text": "Laboratory"
               },
               "code": {
                  "coding": [
                     {
                        "system": "http://loinc.org",
                        "code": "5769-5",
                        "display": "Bacteria #/area UrnS HPF"
                     }
                  ],
                  "text": "Bacteria #/area UrnS HPF"
               },
               "subject": {
                  "reference": "Patient/smart-1157764"
               },
               "effectiveDateTime": "2006-10-30",
               "valueQuantity": {
                  "value": 44,
                  "unit": "/[HPF]",
                  "system": "http://unitsofmeasure.org"
               },
               "referenceRange": [
                  {
                     "low": {
                        "value": 0,
                        "unit": "/[HPF]",
                        "system": "http://unitsofmeasure.org",
                        "code": "/[HPF]"
                     },
                     "high": {
                        "value": 0,
                        "unit": "/[HPF]",
                        "system": "http://unitsofmeasure.org",
                        "code": "/[HPF]"
                     },
                     "meaning": {
                        "coding": [
                           {
                              "system": "http://hl7.org/fhir/referencerange-meaning",
                              "code": "normal",
                              "display": "Normal Range"
                           }
                        ],
                        "text": "Normal Range"
                     }
                  }
               ]
            },
            "search": {
               "mode": "match"
            }
         },
         {
            "fullUrl": "http://165.227.51.4:9002/baseDstu2/Observation/smart-observation-1852-lab",
            "resource": {
               "resourceType": "Observation",
               "id": "smart-observation-1852-lab",
               "meta": {
                  "versionId": "1",
                  "lastUpdated": "2019-08-23T22:11:57.615+00:00",
                  "security": [
                     {
                        "system": "http://smarthealthit.org/security/users",
                        "code": "Patient/smart-1157764"
                     },
                     {
                        "system": "http://smarthealthit.org/security/categories",
                        "code": "laboratory"
                     }
                  ]
               },
               "text": {
                  "status": "generated",
                  "div": "<div xmlns=\"http://www.w3.org/1999/xhtml\">2006-10-30: Squamous UrnS Ql HPF = None </div>"
               },
               "extension": [
                  {
                     "url": "http://fhir-registry.smarthealthit.org/StructureDefinition/labs#value-range",
                     "valueString": "['None', 'Few', 'Many']"
                  }
               ],
               "status": "final",
               "category": {
                  "coding": [
                     {
                        "system": "http://hl7.org/fhir/observation-category",
                        "code": "laboratory",
                        "display": "Laboratory"
                     }
                  ],
                  "text": "Laboratory"
               },
               "code": {
                  "coding": [
                     {
                        "system": "http://loinc.org",
                        "code": "12258-0",
                        "display": "Squamous UrnS Ql HPF"
                     }
                  ],
                  "text": "Squamous UrnS Ql HPF"
               },
               "subject": {
                  "reference": "Patient/smart-1157764"
               },
               "effectiveDateTime": "2006-10-30",
               "valueString": "None"
            },
            "search": {
               "mode": "match"
            }
         },
         {
            "fullUrl": "http://165.227.51.4:9002/baseDstu2/Observation/smart-observation-1853-lab",
            "resource": {
               "resourceType": "Observation",
               "id": "smart-observation-1853-lab",
               "meta": {
                  "versionId": "1",
                  "lastUpdated": "2019-08-23T22:11:57.615+00:00",
                  "security": [
                     {
                        "system": "http://smarthealthit.org/security/users",
                        "code": "Patient/smart-1157764"
                     },
                     {
                        "system": "http://smarthealthit.org/security/categories",
                        "code": "laboratory"
                     }
                  ]
               },
               "text": {
                  "status": "generated",
                  "div": "<div xmlns=\"http://www.w3.org/1999/xhtml\">2006-10-30: Sp Gr Ur Strip = 1.001 </div>"
               },
               "status": "final",
               "category": {
                  "coding": [
                     {
                        "system": "http://hl7.org/fhir/observation-category",
                        "code": "laboratory",
                        "display": "Laboratory"
                     }
                  ],
                  "text": "Laboratory"
               },
               "code": {
                  "coding": [
                     {
                        "system": "http://loinc.org",
                        "code": "5811-5",
                        "display": "Sp Gr Ur Strip"
                     }
                  ],
                  "text": "Sp Gr Ur Strip"
               },
               "subject": {
                  "reference": "Patient/smart-1157764"
               },
               "effectiveDateTime": "2006-10-30",
               "valueQuantity": {
                  "value": 1.001,
                  "system": "http://unitsofmeasure.org"
               },
               "referenceRange": [
                  {
                     "low": {
                        "value": 1.003,
                        "system": "http://unitsofmeasure.org"
                     },
                     "high": {
                        "value": 1.03,
                        "system": "http://unitsofmeasure.org"
                     },
                     "meaning": {
                        "coding": [
                           {
                              "system": "http://hl7.org/fhir/referencerange-meaning",
                              "code": "normal",
                              "display": "Normal Range"
                           }
                        ],
                        "text": "Normal Range"
                     }
                  }
               ]
            },
            "search": {
               "mode": "match"
            }
         },
         {
            "fullUrl": "http://165.227.51.4:9002/baseDstu2/Observation/smart-observation-1854-lab",
            "resource": {
               "resourceType": "Observation",
               "id": "smart-observation-1854-lab",
               "meta": {
                  "versionId": "1",
                  "lastUpdated": "2019-08-23T22:11:57.615+00:00",
                  "security": [
                     {
                        "system": "http://smarthealthit.org/security/users",
                        "code": "Patient/smart-1157764"
                     },
                     {
                        "system": "http://smarthealthit.org/security/categories",
                        "code": "laboratory"
                     }
                  ]
               },
               "text": {
                  "status": "generated",
                  "div": "<div xmlns=\"http://www.w3.org/1999/xhtml\">2006-10-30: Nitrite Ur Ql Strip = Negative </div>"
               },
               "extension": [
                  {
                     "url": "http://fhir-registry.smarthealthit.org/StructureDefinition/labs#value-range",
                     "valueString": "['Negative', 'Positive']"
                  }
               ],
               "status": "final",
               "category": {
                  "coding": [
                     {
                        "system": "http://hl7.org/fhir/observation-category",
                        "code": "laboratory",
                        "display": "Laboratory"
                     }
                  ],
                  "text": "Laboratory"
               },
               "code": {
                  "coding": [
                     {
                        "system": "http://loinc.org",
                        "code": "5802-4",
                        "display": "Nitrite Ur Ql Strip"
                     }
                  ],
                  "text": "Nitrite Ur Ql Strip"
               },
               "subject": {
                  "reference": "Patient/smart-1157764"
               },
               "effectiveDateTime": "2006-10-30",
               "valueString": "Negative"
            },
            "search": {
               "mode": "match"
            }
         },
         {
            "fullUrl": "http://165.227.51.4:9002/baseDstu2/Observation/smart-observation-1855-lab",
            "resource": {
               "resourceType": "Observation",
               "id": "smart-observation-1855-lab",
               "meta": {
                  "versionId": "1",
                  "lastUpdated": "2019-08-23T22:11:57.615+00:00",
                  "security": [
                     {
                        "system": "http://smarthealthit.org/security/users",
                        "code": "Patient/smart-1157764"
                     },
                     {
                        "system": "http://smarthealthit.org/security/categories",
                        "code": "laboratory"
                     }
                  ]
               },
               "text": {
                  "status": "generated",
                  "div": "<div xmlns=\"http://www.w3.org/1999/xhtml\">2006-10-30: Appearance Ur = Clear </div>"
               },
               "status": "final",
               "category": {
                  "coding": [
                     {
                        "system": "http://hl7.org/fhir/observation-category",
                        "code": "laboratory",
                        "display": "Laboratory"
                     }
                  ],
                  "text": "Laboratory"
               },
               "code": {
                  "coding": [
                     {
                        "system": "http://loinc.org",
                        "code": "5767-9",
                        "display": "Appearance Ur"
                     }
                  ],
                  "text": "Appearance Ur"
               },
               "subject": {
                  "reference": "Patient/smart-1157764"
               },
               "effectiveDateTime": "2006-10-30",
               "valueString": "Clear"
            },
            "search": {
               "mode": "match"
            }
         },
         {
            "fullUrl": "http://165.227.51.4:9002/baseDstu2/Observation/smart-observation-1856-lab",
            "resource": {
               "resourceType": "Observation",
               "id": "smart-observation-1856-lab",
               "meta": {
                  "versionId": "1",
                  "lastUpdated": "2019-08-23T22:11:57.615+00:00",
                  "security": [
                     {
                        "system": "http://smarthealthit.org/security/users",
                        "code": "Patient/smart-1157764"
                     },
                     {
                        "system": "http://smarthealthit.org/security/categories",
                        "code": "laboratory"
                     }
                  ]
               },
               "text": {
                  "status": "generated",
                  "div": "<div xmlns=\"http://www.w3.org/1999/xhtml\">2004-07-23: CRP SerPl HS-mCnc = 2.2 mg/L</div>"
               },
               "status": "final",
               "category": {
                  "coding": [
                     {
                        "system": "http://hl7.org/fhir/observation-category",
                        "code": "laboratory",
                        "display": "Laboratory"
                     }
                  ],
                  "text": "Laboratory"
               },
               "code": {
                  "coding": [
                     {
                        "system": "http://loinc.org",
                        "code": "30522-7",
                        "display": "CRP SerPl HS-mCnc"
                     }
                  ],
                  "text": "CRP SerPl HS-mCnc"
               },
               "subject": {
                  "reference": "Patient/smart-1157764"
               },
               "effectiveDateTime": "2004-07-23",
               "valueQuantity": {
                  "value": 2.2,
                  "unit": "mg/L",
                  "system": "http://unitsofmeasure.org"
               },
               "referenceRange": [
                  {
                     "low": {
                        "value": 0,
                        "unit": "mg/L",
                        "system": "http://unitsofmeasure.org",
                        "code": "mg/L"
                     },
                     "high": {
                        "value": 3,
                        "unit": "mg/L",
                        "system": "http://unitsofmeasure.org",
                        "code": "mg/L"
                     },
                     "meaning": {
                        "coding": [
                           {
                              "system": "http://hl7.org/fhir/referencerange-meaning",
                              "code": "normal",
                              "display": "Normal Range"
                           }
                        ],
                        "text": "Normal Range"
                     }
                  }
               ]
            },
            "search": {
               "mode": "match"
            }
         },
         {
            "fullUrl": "http://165.227.51.4:9002/baseDstu2/MedicationOrder/smart-medicationorder-128",
            "resource": {
               "resourceType": "MedicationOrder",
               "id": "smart-medicationorder-128",
               "meta": {
                  "versionId": "1",
                  "lastUpdated": "2019-08-23T22:11:57.615+00:00",
                  "security": [
                     {
                        "system": "http://smarthealthit.org/security/users",
                        "code": "Patient/smart-1157764"
                     },
                     {
                        "system": "http://smarthealthit.org/security/categories",
                        "code": "medications"
                     }
                  ]
               },
               "text": {
                  "status": "generated",
                  "div": "<div xmlns=\"http://www.w3.org/1999/xhtml\">      anastrozole 1 MG Oral Tablet [Arimidex] (rxnorm: 151124)    </div>"
               },
               "status": "active",
               "patient": {
                  "reference": "Patient/smart-1157764"
               },
               "medicationCodeableConcept": {
                  "coding": [
                     {
                        "system": "http://www.nlm.nih.gov/research/umls/rxnorm",
                        "code": "151124",
                        "display": "anastrozole 1 MG Oral Tablet [Arimidex]"
                     }
                  ],
                  "text": "anastrozole 1 MG Oral Tablet [Arimidex]"
               },
               "dosageInstruction": [
                  {
                     "text": "1 daily",
                     "timing": {
                        "repeat": {
                           "boundsPeriod": {
                              "start": "2003-10-23"
                           },
                           "frequency": 1,
                           "period": 1,
                           "periodUnits": "d"
                        }
                     },
                     "doseQuantity": {
                        "value": 1,
                        "unit": "{tablet}",
                        "system": "http://unitsofmeasure.org",
                        "code": "{tablet}"
                     }
                  }
               ],
               "dispenseRequest": {
                  "numberOfRepeatsAllowed": 1,
                  "quantity": {
                     "value": 30,
                     "unit": "{tablet}",
                     "system": "http://unitsofmeasure.org",
                     "code": "{tablet}"
                  },
                  "expectedSupplyDuration": {
                     "value": 30,
                     "unit": "days",
                     "system": "http://unitsofmeasure.org",
                     "code": "d"
                  }
               }
            },
            "search": {
               "mode": "include"
            }
         },
         {
            "fullUrl": "http://165.227.51.4:9002/baseDstu2/MedicationDispense/smart-medicationdispense-928",
            "resource": {
               "resourceType": "MedicationDispense",
               "id": "smart-medicationdispense-928",
               "meta": {
                  "versionId": "1",
                  "lastUpdated": "2019-08-23T22:11:57.615+00:00",
                  "security": [
                     {
                        "system": "http://smarthealthit.org/security/users",
                        "code": "Patient/smart-1157764"
                     },
                     {
                        "system": "http://smarthealthit.org/security/categories",
                        "code": "medications"
                     }
                  ]
               },
               "text": {
                  "fhir_comments": [
                     "  insert contents here  "
                  ],
                  "status": "generated",
                  "div": "<div xmlns=\"http://www.w3.org/1999/xhtml\">      Dispensed 30 tablets = 30 day supply of anastrozole 1 MG Oral Tablet [Arimidex]    </div>"
               },
               "status": "completed",
               "patient": {
                  "reference": "Patient/smart-1157764"
               },
               "authorizingPrescription": [
                  {
                     "reference": "MedicationOrder/smart-medicationorder-128"
                  }
               ],
               "quantity": {
                  "value": 30,
                  "unit": "tablets",
                  "system": "http://unitsofmeasure.org",
                  "code": "{tablets}"
               },
               "daysSupply": {
                  "value": 30,
                  "unit": "days",
                  "system": "http://unitsofmeasure.org",
                  "code": "d"
               },
               "medicationCodeableConcept": {
                  "coding": [
                     {
                        "system": "http://www.nlm.nih.gov/research/umls/rxnorm",
                        "code": "151124",
                        "display": "anastrozole 1 MG Oral Tablet [Arimidex]"
                     }
                  ],
                  "text": "anastrozole 1 MG Oral Tablet [Arimidex]"
               },
               "whenHandedOver": "2005-07-04"
            },
            "search": {
               "mode": "match"
            }
         },
         {
            "fullUrl": "http://165.227.51.4:9002/baseDstu2/MedicationDispense/smart-medicationdispense-913",
            "resource": {
               "resourceType": "MedicationDispense",
               "id": "smart-medicationdispense-913",
               "meta": {
                  "versionId": "1",
                  "lastUpdated": "2019-08-23T22:11:57.615+00:00",
                  "security": [
                     {
                        "system": "http://smarthealthit.org/security/categories",
                        "code": "medications"
                     },
                     {
                        "system": "http://smarthealthit.org/security/users",
                        "code": "Patient/smart-1157764"
                     }
                  ]
               },
               "text": {
                  "fhir_comments": [
                     "  insert contents here  "
                  ],
                  "status": "generated",
                  "div": "<div xmlns=\"http://www.w3.org/1999/xhtml\">      Dispensed 30 tablets = 30 day supply of anastrozole 1 MG Oral Tablet [Arimidex]    </div>"
               },
               "status": "completed",
               "patient": {
                  "reference": "Patient/smart-1157764"
               },
               "authorizingPrescription": [
                  {
                     "reference": "MedicationOrder/smart-medicationorder-128"
                  }
               ],
               "quantity": {
                  "value": 30,
                  "unit": "tablets",
                  "system": "http://unitsofmeasure.org",
                  "code": "{tablets}"
               },
               "daysSupply": {
                  "value": 30,
                  "unit": "days",
                  "system": "http://unitsofmeasure.org",
                  "code": "d"
               },
               "medicationCodeableConcept": {
                  "coding": [
                     {
                        "system": "http://www.nlm.nih.gov/research/umls/rxnorm",
                        "code": "151124",
                        "display": "anastrozole 1 MG Oral Tablet [Arimidex]"
                     }
                  ],
                  "text": "anastrozole 1 MG Oral Tablet [Arimidex]"
               },
               "whenHandedOver": "2004-01-20"
            },
            "search": {
               "mode": "match"
            }
         },
         {
            "fullUrl": "http://165.227.51.4:9002/baseDstu2/MedicationDispense/smart-medicationdispense-936",
            "resource": {
               "resourceType": "MedicationDispense",
               "id": "smart-medicationdispense-936",
               "meta": {
                  "versionId": "1",
                  "lastUpdated": "2019-08-23T22:11:57.615+00:00",
                  "security": [
                     {
                        "system": "http://smarthealthit.org/security/categories",
                        "code": "medications"
                     },
                     {
                        "system": "http://smarthealthit.org/security/users",
                        "code": "Patient/smart-1157764"
                     }
                  ]
               },
               "text": {
                  "fhir_comments": [
                     "  insert contents here  "
                  ],
                  "status": "generated",
                  "div": "<div xmlns=\"http://www.w3.org/1999/xhtml\">      Dispensed 30 tablets = 30 day supply of anastrozole 1 MG Oral Tablet [Arimidex]    </div>"
               },
               "status": "completed",
               "patient": {
                  "reference": "Patient/smart-1157764"
               },
               "authorizingPrescription": [
                  {
                     "reference": "MedicationOrder/smart-medicationorder-128"
                  }
               ],
               "quantity": {
                  "value": 30,
                  "unit": "tablets",
                  "system": "http://unitsofmeasure.org",
                  "code": "{tablets}"
               },
               "daysSupply": {
                  "value": 30,
                  "unit": "days",
                  "system": "http://unitsofmeasure.org",
                  "code": "d"
               },
               "medicationCodeableConcept": {
                  "coding": [
                     {
                        "system": "http://www.nlm.nih.gov/research/umls/rxnorm",
                        "code": "151124",
                        "display": "anastrozole 1 MG Oral Tablet [Arimidex]"
                     }
                  ],
                  "text": "anastrozole 1 MG Oral Tablet [Arimidex]"
               },
               "whenHandedOver": "2006-03-02"
            },
            "search": {
               "mode": "match"
            }
         },
         {
            "fullUrl": "http://165.227.51.4:9002/baseDstu2/MedicationDispense/smart-medicationdispense-925",
            "resource": {
               "resourceType": "MedicationDispense",
               "id": "smart-medicationdispense-925",
               "meta": {
                  "versionId": "1",
                  "lastUpdated": "2019-08-23T22:11:57.615+00:00",
                  "security": [
                     {
                        "system": "http://smarthealthit.org/security/users",
                        "code": "Patient/smart-1157764"
                     },
                     {
                        "system": "http://smarthealthit.org/security/categories",
                        "code": "medications"
                     }
                  ]
               },
               "text": {
                  "fhir_comments": [
                     "  insert contents here  "
                  ],
                  "status": "generated",
                  "div": "<div xmlns=\"http://www.w3.org/1999/xhtml\">      Dispensed 30 tablets = 30 day supply of anastrozole 1 MG Oral Tablet [Arimidex]    </div>"
               },
               "status": "completed",
               "patient": {
                  "reference": "Patient/smart-1157764"
               },
               "authorizingPrescription": [
                  {
                     "reference": "MedicationOrder/smart-medicationorder-128"
                  }
               ],
               "quantity": {
                  "value": 30,
                  "unit": "tablets",
                  "system": "http://unitsofmeasure.org",
                  "code": "{tablets}"
               },
               "daysSupply": {
                  "value": 30,
                  "unit": "days",
                  "system": "http://unitsofmeasure.org",
                  "code": "d"
               },
               "medicationCodeableConcept": {
                  "coding": [
                     {
                        "system": "http://www.nlm.nih.gov/research/umls/rxnorm",
                        "code": "151124",
                        "display": "anastrozole 1 MG Oral Tablet [Arimidex]"
                     }
                  ],
                  "text": "anastrozole 1 MG Oral Tablet [Arimidex]"
               },
               "whenHandedOver": "2005-04-07"
            },
            "search": {
               "mode": "match"
            }
         },
         {
            "fullUrl": "http://165.227.51.4:9002/baseDstu2/MedicationDispense/smart-medicationdispense-920",
            "resource": {
               "resourceType": "MedicationDispense",
               "id": "smart-medicationdispense-920",
               "meta": {
                  "versionId": "1",
                  "lastUpdated": "2019-08-23T22:11:57.615+00:00",
                  "security": [
                     {
                        "system": "http://smarthealthit.org/security/categories",
                        "code": "medications"
                     },
                     {
                        "system": "http://smarthealthit.org/security/users",
                        "code": "Patient/smart-1157764"
                     }
                  ]
               },
               "text": {
                  "fhir_comments": [
                     "  insert contents here  "
                  ],
                  "status": "generated",
                  "div": "<div xmlns=\"http://www.w3.org/1999/xhtml\">      Dispensed 30 tablets = 30 day supply of anastrozole 1 MG Oral Tablet [Arimidex]    </div>"
               },
               "status": "completed",
               "patient": {
                  "reference": "Patient/smart-1157764"
               },
               "authorizingPrescription": [
                  {
                     "reference": "MedicationOrder/smart-medicationorder-128"
                  }
               ],
               "quantity": {
                  "value": 30,
                  "unit": "tablets",
                  "system": "http://unitsofmeasure.org",
                  "code": "{tablets}"
               },
               "daysSupply": {
                  "value": 30,
                  "unit": "days",
                  "system": "http://unitsofmeasure.org",
                  "code": "d"
               },
               "medicationCodeableConcept": {
                  "coding": [
                     {
                        "system": "http://www.nlm.nih.gov/research/umls/rxnorm",
                        "code": "151124",
                        "display": "anastrozole 1 MG Oral Tablet [Arimidex]"
                     }
                  ],
                  "text": "anastrozole 1 MG Oral Tablet [Arimidex]"
               },
               "whenHandedOver": "2004-09-26"
            },
            "search": {
               "mode": "match"
            }
         },
         {
            "fullUrl": "http://165.227.51.4:9002/baseDstu2/MedicationDispense/smart-medicationdispense-924",
            "resource": {
               "resourceType": "MedicationDispense",
               "id": "smart-medicationdispense-924",
               "meta": {
                  "versionId": "1",
                  "lastUpdated": "2019-08-23T22:11:57.615+00:00",
                  "security": [
                     {
                        "system": "http://smarthealthit.org/security/categories",
                        "code": "medications"
                     },
                     {
                        "system": "http://smarthealthit.org/security/users",
                        "code": "Patient/smart-1157764"
                     }
                  ]
               },
               "text": {
                  "fhir_comments": [
                     "  insert contents here  "
                  ],
                  "status": "generated",
                  "div": "<div xmlns=\"http://www.w3.org/1999/xhtml\">      Dispensed 30 tablets = 30 day supply of anastrozole 1 MG Oral Tablet [Arimidex]    </div>"
               },
               "status": "completed",
               "patient": {
                  "reference": "Patient/smart-1157764"
               },
               "authorizingPrescription": [
                  {
                     "reference": "MedicationOrder/smart-medicationorder-128"
                  }
               ],
               "quantity": {
                  "value": 30,
                  "unit": "tablets",
                  "system": "http://unitsofmeasure.org",
                  "code": "{tablets}"
               },
               "daysSupply": {
                  "value": 30,
                  "unit": "days",
                  "system": "http://unitsofmeasure.org",
                  "code": "d"
               },
               "medicationCodeableConcept": {
                  "coding": [
                     {
                        "system": "http://www.nlm.nih.gov/research/umls/rxnorm",
                        "code": "151124",
                        "display": "anastrozole 1 MG Oral Tablet [Arimidex]"
                     }
                  ],
                  "text": "anastrozole 1 MG Oral Tablet [Arimidex]"
               },
               "whenHandedOver": "2005-03-09"
            },
            "search": {
               "mode": "match"
            }
         },
         {
            "fullUrl": "http://165.227.51.4:9002/baseDstu2/MedicationDispense/smart-medicationdispense-927",
            "resource": {
               "resourceType": "MedicationDispense",
               "id": "smart-medicationdispense-927",
               "meta": {
                  "versionId": "1",
                  "lastUpdated": "2019-08-23T22:11:57.615+00:00",
                  "security": [
                     {
                        "system": "http://smarthealthit.org/security/users",
                        "code": "Patient/smart-1157764"
                     },
                     {
                        "system": "http://smarthealthit.org/security/categories",
                        "code": "medications"
                     }
                  ]
               },
               "text": {
                  "fhir_comments": [
                     "  insert contents here  "
                  ],
                  "status": "generated",
                  "div": "<div xmlns=\"http://www.w3.org/1999/xhtml\">      Dispensed 30 tablets = 30 day supply of anastrozole 1 MG Oral Tablet [Arimidex]    </div>"
               },
               "status": "completed",
               "patient": {
                  "reference": "Patient/smart-1157764"
               },
               "authorizingPrescription": [
                  {
                     "reference": "MedicationOrder/smart-medicationorder-128"
                  }
               ],
               "quantity": {
                  "value": 30,
                  "unit": "tablets",
                  "system": "http://unitsofmeasure.org",
                  "code": "{tablets}"
               },
               "daysSupply": {
                  "value": 30,
                  "unit": "days",
                  "system": "http://unitsofmeasure.org",
                  "code": "d"
               },
               "medicationCodeableConcept": {
                  "coding": [
                     {
                        "system": "http://www.nlm.nih.gov/research/umls/rxnorm",
                        "code": "151124",
                        "display": "anastrozole 1 MG Oral Tablet [Arimidex]"
                     }
                  ],
                  "text": "anastrozole 1 MG Oral Tablet [Arimidex]"
               },
               "whenHandedOver": "2005-06-05"
            },
            "search": {
               "mode": "match"
            }
         },
         {
            "fullUrl": "http://165.227.51.4:9002/baseDstu2/MedicationDispense/smart-medicationdispense-930",
            "resource": {
               "resourceType": "MedicationDispense",
               "id": "smart-medicationdispense-930",
               "meta": {
                  "versionId": "1",
                  "lastUpdated": "2019-08-23T22:11:57.615+00:00",
                  "security": [
                     {
                        "system": "http://smarthealthit.org/security/categories",
                        "code": "medications"
                     },
                     {
                        "system": "http://smarthealthit.org/security/users",
                        "code": "Patient/smart-1157764"
                     }
                  ]
               },
               "text": {
                  "fhir_comments": [
                     "  insert contents here  "
                  ],
                  "status": "generated",
                  "div": "<div xmlns=\"http://www.w3.org/1999/xhtml\">      Dispensed 30 tablets = 30 day supply of anastrozole 1 MG Oral Tablet [Arimidex]    </div>"
               },
               "status": "completed",
               "patient": {
                  "reference": "Patient/smart-1157764"
               },
               "authorizingPrescription": [
                  {
                     "reference": "MedicationOrder/smart-medicationorder-128"
                  }
               ],
               "quantity": {
                  "value": 30,
                  "unit": "tablets",
                  "system": "http://unitsofmeasure.org",
                  "code": "{tablets}"
               },
               "daysSupply": {
                  "value": 30,
                  "unit": "days",
                  "system": "http://unitsofmeasure.org",
                  "code": "d"
               },
               "medicationCodeableConcept": {
                  "coding": [
                     {
                        "system": "http://www.nlm.nih.gov/research/umls/rxnorm",
                        "code": "151124",
                        "display": "anastrozole 1 MG Oral Tablet [Arimidex]"
                     }
                  ],
                  "text": "anastrozole 1 MG Oral Tablet [Arimidex]"
               },
               "whenHandedOver": "2005-09-02"
            },
            "search": {
               "mode": "match"
            }
         },
         {
            "fullUrl": "http://165.227.51.4:9002/baseDstu2/MedicationDispense/smart-medicationdispense-912",
            "resource": {
               "resourceType": "MedicationDispense",
               "id": "smart-medicationdispense-912",
               "meta": {
                  "versionId": "1",
                  "lastUpdated": "2019-08-23T22:11:57.615+00:00",
                  "security": [
                     {
                        "system": "http://smarthealthit.org/security/categories",
                        "code": "medications"
                     },
                     {
                        "system": "http://smarthealthit.org/security/users",
                        "code": "Patient/smart-1157764"
                     }
                  ]
               },
               "text": {
                  "fhir_comments": [
                     "  insert contents here  "
                  ],
                  "status": "generated",
                  "div": "<div xmlns=\"http://www.w3.org/1999/xhtml\">      Dispensed 30 tablets = 30 day supply of anastrozole 1 MG Oral Tablet [Arimidex]    </div>"
               },
               "status": "completed",
               "patient": {
                  "reference": "Patient/smart-1157764"
               },
               "authorizingPrescription": [
                  {
                     "reference": "MedicationOrder/smart-medicationorder-128"
                  }
               ],
               "quantity": {
                  "value": 30,
                  "unit": "tablets",
                  "system": "http://unitsofmeasure.org",
                  "code": "{tablets}"
               },
               "daysSupply": {
                  "value": 30,
                  "unit": "days",
                  "system": "http://unitsofmeasure.org",
                  "code": "d"
               },
               "medicationCodeableConcept": {
                  "coding": [
                     {
                        "system": "http://www.nlm.nih.gov/research/umls/rxnorm",
                        "code": "151124",
                        "display": "anastrozole 1 MG Oral Tablet [Arimidex]"
                     }
                  ],
                  "text": "anastrozole 1 MG Oral Tablet [Arimidex]"
               },
               "whenHandedOver": "2003-12-21"
            },
            "search": {
               "mode": "match"
            }
         },
         {
            "fullUrl": "http://165.227.51.4:9002/baseDstu2/MedicationDispense/smart-medicationdispense-917",
            "resource": {
               "resourceType": "MedicationDispense",
               "id": "smart-medicationdispense-917",
               "meta": {
                  "versionId": "1",
                  "lastUpdated": "2019-08-23T22:11:57.615+00:00",
                  "security": [
                     {
                        "system": "http://smarthealthit.org/security/users",
                        "code": "Patient/smart-1157764"
                     },
                     {
                        "system": "http://smarthealthit.org/security/categories",
                        "code": "medications"
                     }
                  ]
               },
               "text": {
                  "fhir_comments": [
                     "  insert contents here  "
                  ],
                  "status": "generated",
                  "div": "<div xmlns=\"http://www.w3.org/1999/xhtml\">      Dispensed 30 tablets = 30 day supply of anastrozole 1 MG Oral Tablet [Arimidex]    </div>"
               },
               "status": "completed",
               "patient": {
                  "reference": "Patient/smart-1157764"
               },
               "authorizingPrescription": [
                  {
                     "reference": "MedicationOrder/smart-medicationorder-128"
                  }
               ],
               "quantity": {
                  "value": 30,
                  "unit": "tablets",
                  "system": "http://unitsofmeasure.org",
                  "code": "{tablets}"
               },
               "daysSupply": {
                  "value": 30,
                  "unit": "days",
                  "system": "http://unitsofmeasure.org",
                  "code": "d"
               },
               "medicationCodeableConcept": {
                  "coding": [
                     {
                        "system": "http://www.nlm.nih.gov/research/umls/rxnorm",
                        "code": "151124",
                        "display": "anastrozole 1 MG Oral Tablet [Arimidex]"
                     }
                  ],
                  "text": "anastrozole 1 MG Oral Tablet [Arimidex]"
               },
               "whenHandedOver": "2004-06-29"
            },
            "search": {
               "mode": "match"
            }
         },
         {
            "fullUrl": "http://165.227.51.4:9002/baseDstu2/MedicationDispense/smart-medicationdispense-931",
            "resource": {
               "resourceType": "MedicationDispense",
               "id": "smart-medicationdispense-931",
               "meta": {
                  "versionId": "1",
                  "lastUpdated": "2019-08-23T22:11:57.615+00:00",
                  "security": [
                     {
                        "system": "http://smarthealthit.org/security/users",
                        "code": "Patient/smart-1157764"
                     },
                     {
                        "system": "http://smarthealthit.org/security/categories",
                        "code": "medications"
                     }
                  ]
               },
               "text": {
                  "fhir_comments": [
                     "  insert contents here  "
                  ],
                  "status": "generated",
                  "div": "<div xmlns=\"http://www.w3.org/1999/xhtml\">      Dispensed 30 tablets = 30 day supply of anastrozole 1 MG Oral Tablet [Arimidex]    </div>"
               },
               "status": "completed",
               "patient": {
                  "reference": "Patient/smart-1157764"
               },
               "authorizingPrescription": [
                  {
                     "reference": "MedicationOrder/smart-medicationorder-128"
                  }
               ],
               "quantity": {
                  "value": 30,
                  "unit": "tablets",
                  "system": "http://unitsofmeasure.org",
                  "code": "{tablets}"
               },
               "daysSupply": {
                  "value": 30,
                  "unit": "days",
                  "system": "http://unitsofmeasure.org",
                  "code": "d"
               },
               "medicationCodeableConcept": {
                  "coding": [
                     {
                        "system": "http://www.nlm.nih.gov/research/umls/rxnorm",
                        "code": "151124",
                        "display": "anastrozole 1 MG Oral Tablet [Arimidex]"
                     }
                  ],
                  "text": "anastrozole 1 MG Oral Tablet [Arimidex]"
               },
               "whenHandedOver": "2005-10-03"
            },
            "search": {
               "mode": "match"
            }
         },
         {
            "fullUrl": "http://165.227.51.4:9002/baseDstu2/MedicationDispense/smart-medicationdispense-921",
            "resource": {
               "resourceType": "MedicationDispense",
               "id": "smart-medicationdispense-921",
               "meta": {
                  "versionId": "1",
                  "lastUpdated": "2019-08-23T22:11:57.615+00:00",
                  "security": [
                     {
                        "system": "http://smarthealthit.org/security/categories",
                        "code": "medications"
                     },
                     {
                        "system": "http://smarthealthit.org/security/users",
                        "code": "Patient/smart-1157764"
                     }
                  ]
               },
               "text": {
                  "fhir_comments": [
                     "  insert contents here  "
                  ],
                  "status": "generated",
                  "div": "<div xmlns=\"http://www.w3.org/1999/xhtml\">      Dispensed 30 tablets = 30 day supply of anastrozole 1 MG Oral Tablet [Arimidex]    </div>"
               },
               "status": "completed",
               "patient": {
                  "reference": "Patient/smart-1157764"
               },
               "authorizingPrescription": [
                  {
                     "reference": "MedicationOrder/smart-medicationorder-128"
                  }
               ],
               "quantity": {
                  "value": 30,
                  "unit": "tablets",
                  "system": "http://unitsofmeasure.org",
                  "code": "{tablets}"
               },
               "daysSupply": {
                  "value": 30,
                  "unit": "days",
                  "system": "http://unitsofmeasure.org",
                  "code": "d"
               },
               "medicationCodeableConcept": {
                  "coding": [
                     {
                        "system": "http://www.nlm.nih.gov/research/umls/rxnorm",
                        "code": "151124",
                        "display": "anastrozole 1 MG Oral Tablet [Arimidex]"
                     }
                  ],
                  "text": "anastrozole 1 MG Oral Tablet [Arimidex]"
               },
               "whenHandedOver": "2004-10-27"
            },
            "search": {
               "mode": "match"
            }
         },
         {
            "fullUrl": "http://165.227.51.4:9002/baseDstu2/MedicationDispense/smart-medicationdispense-911",
            "resource": {
               "resourceType": "MedicationDispense",
               "id": "smart-medicationdispense-911",
               "meta": {
                  "versionId": "1",
                  "lastUpdated": "2019-08-23T22:11:57.615+00:00",
                  "security": [
                     {
                        "system": "http://smarthealthit.org/security/users",
                        "code": "Patient/smart-1157764"
                     },
                     {
                        "system": "http://smarthealthit.org/security/categories",
                        "code": "medications"
                     }
                  ]
               },
               "text": {
                  "fhir_comments": [
                     "  insert contents here  "
                  ],
                  "status": "generated",
                  "div": "<div xmlns=\"http://www.w3.org/1999/xhtml\">      Dispensed 30 tablets = 30 day supply of anastrozole 1 MG Oral Tablet [Arimidex]    </div>"
               },
               "status": "completed",
               "patient": {
                  "reference": "Patient/smart-1157764"
               },
               "authorizingPrescription": [
                  {
                     "reference": "MedicationOrder/smart-medicationorder-128"
                  }
               ],
               "quantity": {
                  "value": 30,
                  "unit": "tablets",
                  "system": "http://unitsofmeasure.org",
                  "code": "{tablets}"
               },
               "daysSupply": {
                  "value": 30,
                  "unit": "days",
                  "system": "http://unitsofmeasure.org",
                  "code": "d"
               },
               "medicationCodeableConcept": {
                  "coding": [
                     {
                        "system": "http://www.nlm.nih.gov/research/umls/rxnorm",
                        "code": "151124",
                        "display": "anastrozole 1 MG Oral Tablet [Arimidex]"
                     }
                  ],
                  "text": "anastrozole 1 MG Oral Tablet [Arimidex]"
               },
               "whenHandedOver": "2003-11-21"
            },
            "search": {
               "mode": "match"
            }
         },
         {
            "fullUrl": "http://165.227.51.4:9002/baseDstu2/MedicationDispense/smart-medicationdispense-934",
            "resource": {
               "resourceType": "MedicationDispense",
               "id": "smart-medicationdispense-934",
               "meta": {
                  "versionId": "1",
                  "lastUpdated": "2019-08-23T22:11:57.615+00:00",
                  "security": [
                     {
                        "system": "http://smarthealthit.org/security/users",
                        "code": "Patient/smart-1157764"
                     },
                     {
                        "system": "http://smarthealthit.org/security/categories",
                        "code": "medications"
                     }
                  ]
               },
               "text": {
                  "fhir_comments": [
                     "  insert contents here  "
                  ],
                  "status": "generated",
                  "div": "<div xmlns=\"http://www.w3.org/1999/xhtml\">      Dispensed 30 tablets = 30 day supply of anastrozole 1 MG Oral Tablet [Arimidex]    </div>"
               },
               "status": "completed",
               "patient": {
                  "reference": "Patient/smart-1157764"
               },
               "authorizingPrescription": [
                  {
                     "reference": "MedicationOrder/smart-medicationorder-128"
                  }
               ],
               "quantity": {
                  "value": 30,
                  "unit": "tablets",
                  "system": "http://unitsofmeasure.org",
                  "code": "{tablets}"
               },
               "daysSupply": {
                  "value": 30,
                  "unit": "days",
                  "system": "http://unitsofmeasure.org",
                  "code": "d"
               },
               "medicationCodeableConcept": {
                  "coding": [
                     {
                        "system": "http://www.nlm.nih.gov/research/umls/rxnorm",
                        "code": "151124",
                        "display": "anastrozole 1 MG Oral Tablet [Arimidex]"
                     }
                  ],
                  "text": "anastrozole 1 MG Oral Tablet [Arimidex]"
               },
               "whenHandedOver": "2006-01-01"
            },
            "search": {
               "mode": "match"
            }
         },
         {
            "fullUrl": "http://165.227.51.4:9002/baseDstu2/MedicationDispense/smart-medicationdispense-915",
            "resource": {
               "resourceType": "MedicationDispense",
               "id": "smart-medicationdispense-915",
               "meta": {
                  "versionId": "1",
                  "lastUpdated": "2019-08-23T22:11:57.615+00:00",
                  "security": [
                     {
                        "system": "http://smarthealthit.org/security/categories",
                        "code": "medications"
                     },
                     {
                        "system": "http://smarthealthit.org/security/users",
                        "code": "Patient/smart-1157764"
                     }
                  ]
               },
               "text": {
                  "fhir_comments": [
                     "  insert contents here  "
                  ],
                  "status": "generated",
                  "div": "<div xmlns=\"http://www.w3.org/1999/xhtml\">      Dispensed 30 tablets = 30 day supply of anastrozole 1 MG Oral Tablet [Arimidex]    </div>"
               },
               "status": "completed",
               "patient": {
                  "reference": "Patient/smart-1157764"
               },
               "authorizingPrescription": [
                  {
                     "reference": "MedicationOrder/smart-medicationorder-128"
                  }
               ],
               "quantity": {
                  "value": 30,
                  "unit": "tablets",
                  "system": "http://unitsofmeasure.org",
                  "code": "{tablets}"
               },
               "daysSupply": {
                  "value": 30,
                  "unit": "days",
                  "system": "http://unitsofmeasure.org",
                  "code": "d"
               },
               "medicationCodeableConcept": {
                  "coding": [
                     {
                        "system": "http://www.nlm.nih.gov/research/umls/rxnorm",
                        "code": "151124",
                        "display": "anastrozole 1 MG Oral Tablet [Arimidex]"
                     }
                  ],
                  "text": "anastrozole 1 MG Oral Tablet [Arimidex]"
               },
               "whenHandedOver": "2004-03-20"
            },
            "search": {
               "mode": "match"
            }
         },
         {
            "fullUrl": "http://165.227.51.4:9002/baseDstu2/MedicationDispense/smart-medicationdispense-916",
            "resource": {
               "resourceType": "MedicationDispense",
               "id": "smart-medicationdispense-916",
               "meta": {
                  "versionId": "1",
                  "lastUpdated": "2019-08-23T22:11:57.615+00:00",
                  "security": [
                     {
                        "system": "http://smarthealthit.org/security/users",
                        "code": "Patient/smart-1157764"
                     },
                     {
                        "system": "http://smarthealthit.org/security/categories",
                        "code": "medications"
                     }
                  ]
               },
               "text": {
                  "fhir_comments": [
                     "  insert contents here  "
                  ],
                  "status": "generated",
                  "div": "<div xmlns=\"http://www.w3.org/1999/xhtml\">      Dispensed 30 tablets = 30 day supply of anastrozole 1 MG Oral Tablet [Arimidex]    </div>"
               },
               "status": "completed",
               "patient": {
                  "reference": "Patient/smart-1157764"
               },
               "authorizingPrescription": [
                  {
                     "reference": "MedicationOrder/smart-medicationorder-128"
                  }
               ],
               "quantity": {
                  "value": 30,
                  "unit": "tablets",
                  "system": "http://unitsofmeasure.org",
                  "code": "{tablets}"
               },
               "daysSupply": {
                  "value": 30,
                  "unit": "days",
                  "system": "http://unitsofmeasure.org",
                  "code": "d"
               },
               "medicationCodeableConcept": {
                  "coding": [
                     {
                        "system": "http://www.nlm.nih.gov/research/umls/rxnorm",
                        "code": "151124",
                        "display": "anastrozole 1 MG Oral Tablet [Arimidex]"
                     }
                  ],
                  "text": "anastrozole 1 MG Oral Tablet [Arimidex]"
               },
               "whenHandedOver": "2004-04-19"
            },
            "search": {
               "mode": "match"
            }
         },
         {
            "fullUrl": "http://165.227.51.4:9002/baseDstu2/MedicationDispense/smart-medicationdispense-926",
            "resource": {
               "resourceType": "MedicationDispense",
               "id": "smart-medicationdispense-926",
               "meta": {
                  "versionId": "1",
                  "lastUpdated": "2019-08-23T22:11:57.615+00:00",
                  "security": [
                     {
                        "system": "http://smarthealthit.org/security/users",
                        "code": "Patient/smart-1157764"
                     },
                     {
                        "system": "http://smarthealthit.org/security/categories",
                        "code": "medications"
                     }
                  ]
               },
               "text": {
                  "fhir_comments": [
                     "  insert contents here  "
                  ],
                  "status": "generated",
                  "div": "<div xmlns=\"http://www.w3.org/1999/xhtml\">      Dispensed 30 tablets = 30 day supply of anastrozole 1 MG Oral Tablet [Arimidex]    </div>"
               },
               "status": "completed",
               "patient": {
                  "reference": "Patient/smart-1157764"
               },
               "authorizingPrescription": [
                  {
                     "reference": "MedicationOrder/smart-medicationorder-128"
                  }
               ],
               "quantity": {
                  "value": 30,
                  "unit": "tablets",
                  "system": "http://unitsofmeasure.org",
                  "code": "{tablets}"
               },
               "daysSupply": {
                  "value": 30,
                  "unit": "days",
                  "system": "http://unitsofmeasure.org",
                  "code": "d"
               },
               "medicationCodeableConcept": {
                  "coding": [
                     {
                        "system": "http://www.nlm.nih.gov/research/umls/rxnorm",
                        "code": "151124",
                        "display": "anastrozole 1 MG Oral Tablet [Arimidex]"
                     }
                  ],
                  "text": "anastrozole 1 MG Oral Tablet [Arimidex]"
               },
               "whenHandedOver": "2005-05-06"
            },
            "search": {
               "mode": "match"
            }
         },
         {
            "fullUrl": "http://165.227.51.4:9002/baseDstu2/MedicationDispense/smart-medicationdispense-933",
            "resource": {
               "resourceType": "MedicationDispense",
               "id": "smart-medicationdispense-933",
               "meta": {
                  "versionId": "1",
                  "lastUpdated": "2019-08-23T22:11:57.615+00:00",
                  "security": [
                     {
                        "system": "http://smarthealthit.org/security/categories",
                        "code": "medications"
                     },
                     {
                        "system": "http://smarthealthit.org/security/users",
                        "code": "Patient/smart-1157764"
                     }
                  ]
               },
               "text": {
                  "fhir_comments": [
                     "  insert contents here  "
                  ],
                  "status": "generated",
                  "div": "<div xmlns=\"http://www.w3.org/1999/xhtml\">      Dispensed 30 tablets = 30 day supply of anastrozole 1 MG Oral Tablet [Arimidex]    </div>"
               },
               "status": "completed",
               "patient": {
                  "reference": "Patient/smart-1157764"
               },
               "authorizingPrescription": [
                  {
                     "reference": "MedicationOrder/smart-medicationorder-128"
                  }
               ],
               "quantity": {
                  "value": 30,
                  "unit": "tablets",
                  "system": "http://unitsofmeasure.org",
                  "code": "{tablets}"
               },
               "daysSupply": {
                  "value": 30,
                  "unit": "days",
                  "system": "http://unitsofmeasure.org",
                  "code": "d"
               },
               "medicationCodeableConcept": {
                  "coding": [
                     {
                        "system": "http://www.nlm.nih.gov/research/umls/rxnorm",
                        "code": "151124",
                        "display": "anastrozole 1 MG Oral Tablet [Arimidex]"
                     }
                  ],
                  "text": "anastrozole 1 MG Oral Tablet [Arimidex]"
               },
               "whenHandedOver": "2005-12-02"
            },
            "search": {
               "mode": "match"
            }
         },
         {
            "fullUrl": "http://165.227.51.4:9002/baseDstu2/MedicationDispense/smart-medicationdispense-923",
            "resource": {
               "resourceType": "MedicationDispense",
               "id": "smart-medicationdispense-923",
               "meta": {
                  "versionId": "1",
                  "lastUpdated": "2019-08-23T22:11:57.615+00:00",
                  "security": [
                     {
                        "system": "http://smarthealthit.org/security/categories",
                        "code": "medications"
                     },
                     {
                        "system": "http://smarthealthit.org/security/users",
                        "code": "Patient/smart-1157764"
                     }
                  ]
               },
               "text": {
                  "fhir_comments": [
                     "  insert contents here  "
                  ],
                  "status": "generated",
                  "div": "<div xmlns=\"http://www.w3.org/1999/xhtml\">      Dispensed 30 tablets = 30 day supply of anastrozole 1 MG Oral Tablet [Arimidex]    </div>"
               },
               "status": "completed",
               "patient": {
                  "reference": "Patient/smart-1157764"
               },
               "authorizingPrescription": [
                  {
                     "reference": "MedicationOrder/smart-medicationorder-128"
                  }
               ],
               "quantity": {
                  "value": 30,
                  "unit": "tablets",
                  "system": "http://unitsofmeasure.org",
                  "code": "{tablets}"
               },
               "daysSupply": {
                  "value": 30,
                  "unit": "days",
                  "system": "http://unitsofmeasure.org",
                  "code": "d"
               },
               "medicationCodeableConcept": {
                  "coding": [
                     {
                        "system": "http://www.nlm.nih.gov/research/umls/rxnorm",
                        "code": "151124",
                        "display": "anastrozole 1 MG Oral Tablet [Arimidex]"
                     }
                  ],
                  "text": "anastrozole 1 MG Oral Tablet [Arimidex]"
               },
               "whenHandedOver": "2005-02-06"
            },
            "search": {
               "mode": "match"
            }
         },
         {
            "fullUrl": "http://165.227.51.4:9002/baseDstu2/MedicationDispense/smart-medicationdispense-919",
            "resource": {
               "resourceType": "MedicationDispense",
               "id": "smart-medicationdispense-919",
               "meta": {
                  "versionId": "1",
                  "lastUpdated": "2019-08-23T22:11:57.615+00:00",
                  "security": [
                     {
                        "system": "http://smarthealthit.org/security/users",
                        "code": "Patient/smart-1157764"
                     },
                     {
                        "system": "http://smarthealthit.org/security/categories",
                        "code": "medications"
                     }
                  ]
               },
               "text": {
                  "fhir_comments": [
                     "  insert contents here  "
                  ],
                  "status": "generated",
                  "div": "<div xmlns=\"http://www.w3.org/1999/xhtml\">      Dispensed 30 tablets = 30 day supply of anastrozole 1 MG Oral Tablet [Arimidex]    </div>"
               },
               "status": "completed",
               "patient": {
                  "reference": "Patient/smart-1157764"
               },
               "authorizingPrescription": [
                  {
                     "reference": "MedicationOrder/smart-medicationorder-128"
                  }
               ],
               "quantity": {
                  "value": 30,
                  "unit": "tablets",
                  "system": "http://unitsofmeasure.org",
                  "code": "{tablets}"
               },
               "daysSupply": {
                  "value": 30,
                  "unit": "days",
                  "system": "http://unitsofmeasure.org",
                  "code": "d"
               },
               "medicationCodeableConcept": {
                  "coding": [
                     {
                        "system": "http://www.nlm.nih.gov/research/umls/rxnorm",
                        "code": "151124",
                        "display": "anastrozole 1 MG Oral Tablet [Arimidex]"
                     }
                  ],
                  "text": "anastrozole 1 MG Oral Tablet [Arimidex]"
               },
               "whenHandedOver": "2004-08-28"
            },
            "search": {
               "mode": "match"
            }
         },
         {
            "fullUrl": "http://165.227.51.4:9002/baseDstu2/MedicationDispense/smart-medicationdispense-918",
            "resource": {
               "resourceType": "MedicationDispense",
               "id": "smart-medicationdispense-918",
               "meta": {
                  "versionId": "1",
                  "lastUpdated": "2019-08-23T22:11:57.615+00:00",
                  "security": [
                     {
                        "system": "http://smarthealthit.org/security/categories",
                        "code": "medications"
                     },
                     {
                        "system": "http://smarthealthit.org/security/users",
                        "code": "Patient/smart-1157764"
                     }
                  ]
               },
               "text": {
                  "fhir_comments": [
                     "  insert contents here  "
                  ],
                  "status": "generated",
                  "div": "<div xmlns=\"http://www.w3.org/1999/xhtml\">      Dispensed 30 tablets = 30 day supply of anastrozole 1 MG Oral Tablet [Arimidex]    </div>"
               },
               "status": "completed",
               "patient": {
                  "reference": "Patient/smart-1157764"
               },
               "authorizingPrescription": [
                  {
                     "reference": "MedicationOrder/smart-medicationorder-128"
                  }
               ],
               "quantity": {
                  "value": 30,
                  "unit": "tablets",
                  "system": "http://unitsofmeasure.org",
                  "code": "{tablets}"
               },
               "daysSupply": {
                  "value": 30,
                  "unit": "days",
                  "system": "http://unitsofmeasure.org",
                  "code": "d"
               },
               "medicationCodeableConcept": {
                  "coding": [
                     {
                        "system": "http://www.nlm.nih.gov/research/umls/rxnorm",
                        "code": "151124",
                        "display": "anastrozole 1 MG Oral Tablet [Arimidex]"
                     }
                  ],
                  "text": "anastrozole 1 MG Oral Tablet [Arimidex]"
               },
               "whenHandedOver": "2004-07-28"
            },
            "search": {
               "mode": "match"
            }
         },
         {
            "fullUrl": "http://165.227.51.4:9002/baseDstu2/MedicationDispense/smart-medicationdispense-932",
            "resource": {
               "resourceType": "MedicationDispense",
               "id": "smart-medicationdispense-932",
               "meta": {
                  "versionId": "1",
                  "lastUpdated": "2019-08-23T22:11:57.615+00:00",
                  "security": [
                     {
                        "system": "http://smarthealthit.org/security/categories",
                        "code": "medications"
                     },
                     {
                        "system": "http://smarthealthit.org/security/users",
                        "code": "Patient/smart-1157764"
                     }
                  ]
               },
               "text": {
                  "fhir_comments": [
                     "  insert contents here  "
                  ],
                  "status": "generated",
                  "div": "<div xmlns=\"http://www.w3.org/1999/xhtml\">      Dispensed 30 tablets = 30 day supply of anastrozole 1 MG Oral Tablet [Arimidex]    </div>"
               },
               "status": "completed",
               "patient": {
                  "reference": "Patient/smart-1157764"
               },
               "authorizingPrescription": [
                  {
                     "reference": "MedicationOrder/smart-medicationorder-128"
                  }
               ],
               "quantity": {
                  "value": 30,
                  "unit": "tablets",
                  "system": "http://unitsofmeasure.org",
                  "code": "{tablets}"
               },
               "daysSupply": {
                  "value": 30,
                  "unit": "days",
                  "system": "http://unitsofmeasure.org",
                  "code": "d"
               },
               "medicationCodeableConcept": {
                  "coding": [
                     {
                        "system": "http://www.nlm.nih.gov/research/umls/rxnorm",
                        "code": "151124",
                        "display": "anastrozole 1 MG Oral Tablet [Arimidex]"
                     }
                  ],
                  "text": "anastrozole 1 MG Oral Tablet [Arimidex]"
               },
               "whenHandedOver": "2005-11-02"
            },
            "search": {
               "mode": "match"
            }
         },
         {
            "fullUrl": "http://165.227.51.4:9002/baseDstu2/MedicationDispense/smart-medicationdispense-922",
            "resource": {
               "resourceType": "MedicationDispense",
               "id": "smart-medicationdispense-922",
               "meta": {
                  "versionId": "1",
                  "lastUpdated": "2019-08-23T22:11:57.615+00:00",
                  "security": [
                     {
                        "system": "http://smarthealthit.org/security/users",
                        "code": "Patient/smart-1157764"
                     },
                     {
                        "system": "http://smarthealthit.org/security/categories",
                        "code": "medications"
                     }
                  ]
               },
               "text": {
                  "fhir_comments": [
                     "  insert contents here  "
                  ],
                  "status": "generated",
                  "div": "<div xmlns=\"http://www.w3.org/1999/xhtml\">      Dispensed 30 tablets = 30 day supply of anastrozole 1 MG Oral Tablet [Arimidex]    </div>"
               },
               "status": "completed",
               "patient": {
                  "reference": "Patient/smart-1157764"
               },
               "authorizingPrescription": [
                  {
                     "reference": "MedicationOrder/smart-medicationorder-128"
                  }
               ],
               "quantity": {
                  "value": 30,
                  "unit": "tablets",
                  "system": "http://unitsofmeasure.org",
                  "code": "{tablets}"
               },
               "daysSupply": {
                  "value": 30,
                  "unit": "days",
                  "system": "http://unitsofmeasure.org",
                  "code": "d"
               },
               "medicationCodeableConcept": {
                  "coding": [
                     {
                        "system": "http://www.nlm.nih.gov/research/umls/rxnorm",
                        "code": "151124",
                        "display": "anastrozole 1 MG Oral Tablet [Arimidex]"
                     }
                  ],
                  "text": "anastrozole 1 MG Oral Tablet [Arimidex]"
               },
               "whenHandedOver": "2004-11-25"
            },
            "search": {
               "mode": "match"
            }
         },
         {
            "fullUrl": "http://165.227.51.4:9002/baseDstu2/MedicationDispense/smart-medicationdispense-910",
            "resource": {
               "resourceType": "MedicationDispense",
               "id": "smart-medicationdispense-910",
               "meta": {
                  "versionId": "1",
                  "lastUpdated": "2019-08-23T22:11:57.615+00:00",
                  "security": [
                     {
                        "system": "http://smarthealthit.org/security/categories",
                        "code": "medications"
                     },
                     {
                        "system": "http://smarthealthit.org/security/users",
                        "code": "Patient/smart-1157764"
                     }
                  ]
               },
               "text": {
                  "fhir_comments": [
                     "  insert contents here  "
                  ],
                  "status": "generated",
                  "div": "<div xmlns=\"http://www.w3.org/1999/xhtml\">      Dispensed 30 tablets = 30 day supply of anastrozole 1 MG Oral Tablet [Arimidex]    </div>"
               },
               "status": "completed",
               "patient": {
                  "reference": "Patient/smart-1157764"
               },
               "authorizingPrescription": [
                  {
                     "reference": "MedicationOrder/smart-medicationorder-128"
                  }
               ],
               "quantity": {
                  "value": 30,
                  "unit": "tablets",
                  "system": "http://unitsofmeasure.org",
                  "code": "{tablets}"
               },
               "daysSupply": {
                  "value": 30,
                  "unit": "days",
                  "system": "http://unitsofmeasure.org",
                  "code": "d"
               },
               "medicationCodeableConcept": {
                  "coding": [
                     {
                        "system": "http://www.nlm.nih.gov/research/umls/rxnorm",
                        "code": "151124",
                        "display": "anastrozole 1 MG Oral Tablet [Arimidex]"
                     }
                  ],
                  "text": "anastrozole 1 MG Oral Tablet [Arimidex]"
               },
               "whenHandedOver": "2003-10-23"
            },
            "search": {
               "mode": "match"
            }
         },
         {
            "fullUrl": "http://165.227.51.4:9002/baseDstu2/MedicationDispense/smart-medicationdispense-914",
            "resource": {
               "resourceType": "MedicationDispense",
               "id": "smart-medicationdispense-914",
               "meta": {
                  "versionId": "1",
                  "lastUpdated": "2019-08-23T22:11:57.615+00:00",
                  "security": [
                     {
                        "system": "http://smarthealthit.org/security/categories",
                        "code": "medications"
                     },
                     {
                        "system": "http://smarthealthit.org/security/users",
                        "code": "Patient/smart-1157764"
                     }
                  ]
               },
               "text": {
                  "fhir_comments": [
                     "  insert contents here  "
                  ],
                  "status": "generated",
                  "div": "<div xmlns=\"http://www.w3.org/1999/xhtml\">      Dispensed 30 tablets = 30 day supply of anastrozole 1 MG Oral Tablet [Arimidex]    </div>"
               },
               "status": "completed",
               "patient": {
                  "reference": "Patient/smart-1157764"
               },
               "authorizingPrescription": [
                  {
                     "reference": "MedicationOrder/smart-medicationorder-128"
                  }
               ],
               "quantity": {
                  "value": 30,
                  "unit": "tablets",
                  "system": "http://unitsofmeasure.org",
                  "code": "{tablets}"
               },
               "daysSupply": {
                  "value": 30,
                  "unit": "days",
                  "system": "http://unitsofmeasure.org",
                  "code": "d"
               },
               "medicationCodeableConcept": {
                  "coding": [
                     {
                        "system": "http://www.nlm.nih.gov/research/umls/rxnorm",
                        "code": "151124",
                        "display": "anastrozole 1 MG Oral Tablet [Arimidex]"
                     }
                  ],
                  "text": "anastrozole 1 MG Oral Tablet [Arimidex]"
               },
               "whenHandedOver": "2004-02-18"
            },
            "search": {
               "mode": "match"
            }
         },
         {
            "fullUrl": "http://165.227.51.4:9002/baseDstu2/MedicationDispense/smart-medicationdispense-929",
            "resource": {
               "resourceType": "MedicationDispense",
               "id": "smart-medicationdispense-929",
               "meta": {
                  "versionId": "1",
                  "lastUpdated": "2019-08-23T22:11:57.615+00:00",
                  "security": [
                     {
                        "system": "http://smarthealthit.org/security/users",
                        "code": "Patient/smart-1157764"
                     },
                     {
                        "system": "http://smarthealthit.org/security/categories",
                        "code": "medications"
                     }
                  ]
               },
               "text": {
                  "fhir_comments": [
                     "  insert contents here  "
                  ],
                  "status": "generated",
                  "div": "<div xmlns=\"http://www.w3.org/1999/xhtml\">      Dispensed 30 tablets = 30 day supply of anastrozole 1 MG Oral Tablet [Arimidex]    </div>"
               },
               "status": "completed",
               "patient": {
                  "reference": "Patient/smart-1157764"
               },
               "authorizingPrescription": [
                  {
                     "reference": "MedicationOrder/smart-medicationorder-128"
                  }
               ],
               "quantity": {
                  "value": 30,
                  "unit": "tablets",
                  "system": "http://unitsofmeasure.org",
                  "code": "{tablets}"
               },
               "daysSupply": {
                  "value": 30,
                  "unit": "days",
                  "system": "http://unitsofmeasure.org",
                  "code": "d"
               },
               "medicationCodeableConcept": {
                  "coding": [
                     {
                        "system": "http://www.nlm.nih.gov/research/umls/rxnorm",
                        "code": "151124",
                        "display": "anastrozole 1 MG Oral Tablet [Arimidex]"
                     }
                  ],
                  "text": "anastrozole 1 MG Oral Tablet [Arimidex]"
               },
               "whenHandedOver": "2005-08-03"
            },
            "search": {
               "mode": "match"
            }
         },
         {
            "fullUrl": "http://165.227.51.4:9002/baseDstu2/MedicationDispense/smart-medicationdispense-935",
            "resource": {
               "resourceType": "MedicationDispense",
               "id": "smart-medicationdispense-935",
               "meta": {
                  "versionId": "1",
                  "lastUpdated": "2019-08-23T22:11:57.615+00:00",
                  "security": [
                     {
                        "system": "http://smarthealthit.org/security/users",
                        "code": "Patient/smart-1157764"
                     },
                     {
                        "system": "http://smarthealthit.org/security/categories",
                        "code": "medications"
                     }
                  ]
               },
               "text": {
                  "fhir_comments": [
                     "  insert contents here  "
                  ],
                  "status": "generated",
                  "div": "<div xmlns=\"http://www.w3.org/1999/xhtml\">      Dispensed 30 tablets = 30 day supply of anastrozole 1 MG Oral Tablet [Arimidex]    </div>"
               },
               "status": "completed",
               "patient": {
                  "reference": "Patient/smart-1157764"
               },
               "authorizingPrescription": [
                  {
                     "reference": "MedicationOrder/smart-medicationorder-128"
                  }
               ],
               "quantity": {
                  "value": 30,
                  "unit": "tablets",
                  "system": "http://unitsofmeasure.org",
                  "code": "{tablets}"
               },
               "daysSupply": {
                  "value": 30,
                  "unit": "days",
                  "system": "http://unitsofmeasure.org",
                  "code": "d"
               },
               "medicationCodeableConcept": {
                  "coding": [
                     {
                        "system": "http://www.nlm.nih.gov/research/umls/rxnorm",
                        "code": "151124",
                        "display": "anastrozole 1 MG Oral Tablet [Arimidex]"
                     }
                  ],
                  "text": "anastrozole 1 MG Oral Tablet [Arimidex]"
               },
               "whenHandedOver": "2006-01-31"
            },
            "search": {
               "mode": "match"
            }
         },
         {
            "fullUrl": "http://165.227.51.4:9002/baseDstu2/MedicationOrder/smart-medicationorder-129",
            "resource": {
               "resourceType": "MedicationOrder",
               "id": "smart-medicationorder-129",
               "meta": {
                  "versionId": "1",
                  "lastUpdated": "2019-08-23T22:11:57.615+00:00",
                  "security": [
                     {
                        "system": "http://smarthealthit.org/security/categories",
                        "code": "medications"
                     },
                     {
                        "system": "http://smarthealthit.org/security/users",
                        "code": "Patient/smart-1157764"
                     }
                  ]
               },
               "text": {
                  "status": "generated",
                  "div": "<div xmlns=\"http://www.w3.org/1999/xhtml\">      {4 (Risedronate 35 MG Oral Tablet [Actonel]) } Pack [Actonel 35] (rxnorm: 877300)    </div>"
               },
               "status": "active",
               "patient": {
                  "reference": "Patient/smart-1157764"
               },
               "medicationCodeableConcept": {
                  "coding": [
                     {
                        "system": "http://www.nlm.nih.gov/research/umls/rxnorm",
                        "code": "877300",
                        "display": "{4 (Risedronate 35 MG Oral Tablet [Actonel]) } Pack [Actonel 35]"
                     }
                  ],
                  "text": "{4 (Risedronate 35 MG Oral Tablet [Actonel]) } Pack [Actonel 35]"
               },
               "dosageInstruction": [
                  {
                     "text": "1 weekly",
                     "timing": {
                        "repeat": {
                           "boundsPeriod": {
                              "start": "2003-11-02"
                           },
                           "frequency": 1,
                           "period": 1,
                           "periodUnits": "wk"
                        }
                     },
                     "doseQuantity": {
                        "value": 1,
                        "unit": "{tablet}",
                        "system": "http://unitsofmeasure.org",
                        "code": "{tablet}"
                     }
                  }
               ],
               "dispenseRequest": {
                  "numberOfRepeatsAllowed": 1,
                  "quantity": {
                     "value": 4,
                     "unit": "{tablet}",
                     "system": "http://unitsofmeasure.org",
                     "code": "{tablet}"
                  },
                  "expectedSupplyDuration": {
                     "value": 30,
                     "unit": "days",
                     "system": "http://unitsofmeasure.org",
                     "code": "d"
                  }
               }
            },
            "search": {
               "mode": "include"
            }
         },
         {
            "fullUrl": "http://165.227.51.4:9002/baseDstu2/MedicationDispense/smart-medicationdispense-898",
            "resource": {
               "resourceType": "MedicationDispense",
               "id": "smart-medicationdispense-898",
               "meta": {
                  "versionId": "1",
                  "lastUpdated": "2019-08-23T22:11:57.615+00:00",
                  "security": [
                     {
                        "system": "http://smarthealthit.org/security/users",
                        "code": "Patient/smart-1157764"
                     },
                     {
                        "system": "http://smarthealthit.org/security/categories",
                        "code": "medications"
                     }
                  ]
               },
               "text": {
                  "fhir_comments": [
                     "  insert contents here  "
                  ],
                  "status": "generated",
                  "div": "<div xmlns=\"http://www.w3.org/1999/xhtml\">      Dispensed 4 tablets = 30 day supply of {4 (Risedronate 35 MG Oral Tablet [Actonel]) } Pack [Actonel 35]    </div>"
               },
               "status": "completed",
               "patient": {
                  "reference": "Patient/smart-1157764"
               },
               "authorizingPrescription": [
                  {
                     "reference": "MedicationOrder/smart-medicationorder-129"
                  }
               ],
               "quantity": {
                  "value": 4,
                  "unit": "tablets",
                  "system": "http://unitsofmeasure.org",
                  "code": "{tablets}"
               },
               "daysSupply": {
                  "value": 30,
                  "unit": "days",
                  "system": "http://unitsofmeasure.org",
                  "code": "d"
               },
               "medicationCodeableConcept": {
                  "coding": [
                     {
                        "system": "http://www.nlm.nih.gov/research/umls/rxnorm",
                        "code": "877300",
                        "display": "{4 (Risedronate 35 MG Oral Tablet [Actonel]) } Pack [Actonel 35]"
                     }
                  ],
                  "text": "{4 (Risedronate 35 MG Oral Tablet [Actonel]) } Pack [Actonel 35]"
               },
               "whenHandedOver": "2005-02-20"
            },
            "search": {
               "mode": "match"
            }
         },
         {
            "fullUrl": "http://165.227.51.4:9002/baseDstu2/MedicationDispense/smart-medicationdispense-889",
            "resource": {
               "resourceType": "MedicationDispense",
               "id": "smart-medicationdispense-889",
               "meta": {
                  "versionId": "1",
                  "lastUpdated": "2019-08-23T22:11:57.615+00:00",
                  "security": [
                     {
                        "system": "http://smarthealthit.org/security/users",
                        "code": "Patient/smart-1157764"
                     },
                     {
                        "system": "http://smarthealthit.org/security/categories",
                        "code": "medications"
                     }
                  ]
               },
               "text": {
                  "fhir_comments": [
                     "  insert contents here  "
                  ],
                  "status": "generated",
                  "div": "<div xmlns=\"http://www.w3.org/1999/xhtml\">      Dispensed 4 tablets = 30 day supply of {4 (Risedronate 35 MG Oral Tablet [Actonel]) } Pack [Actonel 35]    </div>"
               },
               "status": "completed",
               "patient": {
                  "reference": "Patient/smart-1157764"
               },
               "authorizingPrescription": [
                  {
                     "reference": "MedicationOrder/smart-medicationorder-129"
                  }
               ],
               "quantity": {
                  "value": 4,
                  "unit": "tablets",
                  "system": "http://unitsofmeasure.org",
                  "code": "{tablets}"
               },
               "daysSupply": {
                  "value": 30,
                  "unit": "days",
                  "system": "http://unitsofmeasure.org",
                  "code": "d"
               },
               "medicationCodeableConcept": {
                  "coding": [
                     {
                        "system": "http://www.nlm.nih.gov/research/umls/rxnorm",
                        "code": "877300",
                        "display": "{4 (Risedronate 35 MG Oral Tablet [Actonel]) } Pack [Actonel 35]"
                     }
                  ],
                  "text": "{4 (Risedronate 35 MG Oral Tablet [Actonel]) } Pack [Actonel 35]"
               },
               "whenHandedOver": "2004-06-09"
            },
            "search": {
               "mode": "match"
            }
         },
         {
            "fullUrl": "http://165.227.51.4:9002/baseDstu2/MedicationDispense/smart-medicationdispense-908",
            "resource": {
               "resourceType": "MedicationDispense",
               "id": "smart-medicationdispense-908",
               "meta": {
                  "versionId": "1",
                  "lastUpdated": "2019-08-23T22:11:57.615+00:00",
                  "security": [
                     {
                        "system": "http://smarthealthit.org/security/categories",
                        "code": "medications"
                     },
                     {
                        "system": "http://smarthealthit.org/security/users",
                        "code": "Patient/smart-1157764"
                     }
                  ]
               },
               "text": {
                  "fhir_comments": [
                     "  insert contents here  "
                  ],
                  "status": "generated",
                  "div": "<div xmlns=\"http://www.w3.org/1999/xhtml\">      Dispensed 4 tablets = 30 day supply of {4 (Risedronate 35 MG Oral Tablet [Actonel]) } Pack [Actonel 35]    </div>"
               },
               "status": "completed",
               "patient": {
                  "reference": "Patient/smart-1157764"
               },
               "authorizingPrescription": [
                  {
                     "reference": "MedicationOrder/smart-medicationorder-129"
                  }
               ],
               "quantity": {
                  "value": 4,
                  "unit": "tablets",
                  "system": "http://unitsofmeasure.org",
                  "code": "{tablets}"
               },
               "daysSupply": {
                  "value": 30,
                  "unit": "days",
                  "system": "http://unitsofmeasure.org",
                  "code": "d"
               },
               "medicationCodeableConcept": {
                  "coding": [
                     {
                        "system": "http://www.nlm.nih.gov/research/umls/rxnorm",
                        "code": "877300",
                        "display": "{4 (Risedronate 35 MG Oral Tablet [Actonel]) } Pack [Actonel 35]"
                     }
                  ],
                  "text": "{4 (Risedronate 35 MG Oral Tablet [Actonel]) } Pack [Actonel 35]"
               },
               "whenHandedOver": "2005-12-25"
            },
            "search": {
               "mode": "match"
            }
         },
         {
            "fullUrl": "http://165.227.51.4:9002/baseDstu2/MedicationDispense/smart-medicationdispense-890",
            "resource": {
               "resourceType": "MedicationDispense",
               "id": "smart-medicationdispense-890",
               "meta": {
                  "versionId": "1",
                  "lastUpdated": "2019-08-23T22:11:57.615+00:00",
                  "security": [
                     {
                        "system": "http://smarthealthit.org/security/users",
                        "code": "Patient/smart-1157764"
                     },
                     {
                        "system": "http://smarthealthit.org/security/categories",
                        "code": "medications"
                     }
                  ]
               },
               "text": {
                  "fhir_comments": [
                     "  insert contents here  "
                  ],
                  "status": "generated",
                  "div": "<div xmlns=\"http://www.w3.org/1999/xhtml\">      Dispensed 4 tablets = 30 day supply of {4 (Risedronate 35 MG Oral Tablet [Actonel]) } Pack [Actonel 35]    </div>"
               },
               "status": "completed",
               "patient": {
                  "reference": "Patient/smart-1157764"
               },
               "authorizingPrescription": [
                  {
                     "reference": "MedicationOrder/smart-medicationorder-129"
                  }
               ],
               "quantity": {
                  "value": 4,
                  "unit": "tablets",
                  "system": "http://unitsofmeasure.org",
                  "code": "{tablets}"
               },
               "daysSupply": {
                  "value": 30,
                  "unit": "days",
                  "system": "http://unitsofmeasure.org",
                  "code": "d"
               },
               "medicationCodeableConcept": {
                  "coding": [
                     {
                        "system": "http://www.nlm.nih.gov/research/umls/rxnorm",
                        "code": "877300",
                        "display": "{4 (Risedronate 35 MG Oral Tablet [Actonel]) } Pack [Actonel 35]"
                     }
                  ],
                  "text": "{4 (Risedronate 35 MG Oral Tablet [Actonel]) } Pack [Actonel 35]"
               },
               "whenHandedOver": "2004-07-06"
            },
            "search": {
               "mode": "match"
            }
         },
         {
            "fullUrl": "http://165.227.51.4:9002/baseDstu2/MedicationDispense/smart-medicationdispense-891",
            "resource": {
               "resourceType": "MedicationDispense",
               "id": "smart-medicationdispense-891",
               "meta": {
                  "versionId": "1",
                  "lastUpdated": "2019-08-23T22:11:57.615+00:00",
                  "security": [
                     {
                        "system": "http://smarthealthit.org/security/users",
                        "code": "Patient/smart-1157764"
                     },
                     {
                        "system": "http://smarthealthit.org/security/categories",
                        "code": "medications"
                     }
                  ]
               },
               "text": {
                  "fhir_comments": [
                     "  insert contents here  "
                  ],
                  "status": "generated",
                  "div": "<div xmlns=\"http://www.w3.org/1999/xhtml\">      Dispensed 4 tablets = 30 day supply of {4 (Risedronate 35 MG Oral Tablet [Actonel]) } Pack [Actonel 35]    </div>"
               },
               "status": "completed",
               "patient": {
                  "reference": "Patient/smart-1157764"
               },
               "authorizingPrescription": [
                  {
                     "reference": "MedicationOrder/smart-medicationorder-129"
                  }
               ],
               "quantity": {
                  "value": 4,
                  "unit": "tablets",
                  "system": "http://unitsofmeasure.org",
                  "code": "{tablets}"
               },
               "daysSupply": {
                  "value": 30,
                  "unit": "days",
                  "system": "http://unitsofmeasure.org",
                  "code": "d"
               },
               "medicationCodeableConcept": {
                  "coding": [
                     {
                        "system": "http://www.nlm.nih.gov/research/umls/rxnorm",
                        "code": "877300",
                        "display": "{4 (Risedronate 35 MG Oral Tablet [Actonel]) } Pack [Actonel 35]"
                     }
                  ],
                  "text": "{4 (Risedronate 35 MG Oral Tablet [Actonel]) } Pack [Actonel 35]"
               },
               "whenHandedOver": "2004-08-04"
            },
            "search": {
               "mode": "match"
            }
         },
         {
            "fullUrl": "http://165.227.51.4:9002/baseDstu2/MedicationDispense/smart-medicationdispense-902",
            "resource": {
               "resourceType": "MedicationDispense",
               "id": "smart-medicationdispense-902",
               "meta": {
                  "versionId": "1",
                  "lastUpdated": "2019-08-23T22:11:57.615+00:00",
                  "security": [
                     {
                        "system": "http://smarthealthit.org/security/categories",
                        "code": "medications"
                     },
                     {
                        "system": "http://smarthealthit.org/security/users",
                        "code": "Patient/smart-1157764"
                     }
                  ]
               },
               "text": {
                  "fhir_comments": [
                     "  insert contents here  "
                  ],
                  "status": "generated",
                  "div": "<div xmlns=\"http://www.w3.org/1999/xhtml\">      Dispensed 4 tablets = 30 day supply of {4 (Risedronate 35 MG Oral Tablet [Actonel]) } Pack [Actonel 35]    </div>"
               },
               "status": "completed",
               "patient": {
                  "reference": "Patient/smart-1157764"
               },
               "authorizingPrescription": [
                  {
                     "reference": "MedicationOrder/smart-medicationorder-129"
                  }
               ],
               "quantity": {
                  "value": 4,
                  "unit": "tablets",
                  "system": "http://unitsofmeasure.org",
                  "code": "{tablets}"
               },
               "daysSupply": {
                  "value": 30,
                  "unit": "days",
                  "system": "http://unitsofmeasure.org",
                  "code": "d"
               },
               "medicationCodeableConcept": {
                  "coding": [
                     {
                        "system": "http://www.nlm.nih.gov/research/umls/rxnorm",
                        "code": "877300",
                        "display": "{4 (Risedronate 35 MG Oral Tablet [Actonel]) } Pack [Actonel 35]"
                     }
                  ],
                  "text": "{4 (Risedronate 35 MG Oral Tablet [Actonel]) } Pack [Actonel 35]"
               },
               "whenHandedOver": "2005-06-08"
            },
            "search": {
               "mode": "match"
            }
         },
         {
            "fullUrl": "http://165.227.51.4:9002/baseDstu2/MedicationDispense/smart-medicationdispense-899",
            "resource": {
               "resourceType": "MedicationDispense",
               "id": "smart-medicationdispense-899",
               "meta": {
                  "versionId": "1",
                  "lastUpdated": "2019-08-23T22:11:57.615+00:00",
                  "security": [
                     {
                        "system": "http://smarthealthit.org/security/categories",
                        "code": "medications"
                     },
                     {
                        "system": "http://smarthealthit.org/security/users",
                        "code": "Patient/smart-1157764"
                     }
                  ]
               },
               "text": {
                  "fhir_comments": [
                     "  insert contents here  "
                  ],
                  "status": "generated",
                  "div": "<div xmlns=\"http://www.w3.org/1999/xhtml\">      Dispensed 4 tablets = 30 day supply of {4 (Risedronate 35 MG Oral Tablet [Actonel]) } Pack [Actonel 35]    </div>"
               },
               "status": "completed",
               "patient": {
                  "reference": "Patient/smart-1157764"
               },
               "authorizingPrescription": [
                  {
                     "reference": "MedicationOrder/smart-medicationorder-129"
                  }
               ],
               "quantity": {
                  "value": 4,
                  "unit": "tablets",
                  "system": "http://unitsofmeasure.org",
                  "code": "{tablets}"
               },
               "daysSupply": {
                  "value": 30,
                  "unit": "days",
                  "system": "http://unitsofmeasure.org",
                  "code": "d"
               },
               "medicationCodeableConcept": {
                  "coding": [
                     {
                        "system": "http://www.nlm.nih.gov/research/umls/rxnorm",
                        "code": "877300",
                        "display": "{4 (Risedronate 35 MG Oral Tablet [Actonel]) } Pack [Actonel 35]"
                     }
                  ],
                  "text": "{4 (Risedronate 35 MG Oral Tablet [Actonel]) } Pack [Actonel 35]"
               },
               "whenHandedOver": "2005-03-19"
            },
            "search": {
               "mode": "match"
            }
         },
         {
            "fullUrl": "http://165.227.51.4:9002/baseDstu2/MedicationDispense/smart-medicationdispense-884",
            "resource": {
               "resourceType": "MedicationDispense",
               "id": "smart-medicationdispense-884",
               "meta": {
                  "versionId": "1",
                  "lastUpdated": "2019-08-23T22:11:57.615+00:00",
                  "security": [
                     {
                        "system": "http://smarthealthit.org/security/users",
                        "code": "Patient/smart-1157764"
                     },
                     {
                        "system": "http://smarthealthit.org/security/categories",
                        "code": "medications"
                     }
                  ]
               },
               "text": {
                  "fhir_comments": [
                     "  insert contents here  "
                  ],
                  "status": "generated",
                  "div": "<div xmlns=\"http://www.w3.org/1999/xhtml\">      Dispensed 4 tablets = 30 day supply of {4 (Risedronate 35 MG Oral Tablet [Actonel]) } Pack [Actonel 35]    </div>"
               },
               "status": "completed",
               "patient": {
                  "reference": "Patient/smart-1157764"
               },
               "authorizingPrescription": [
                  {
                     "reference": "MedicationOrder/smart-medicationorder-129"
                  }
               ],
               "quantity": {
                  "value": 4,
                  "unit": "tablets",
                  "system": "http://unitsofmeasure.org",
                  "code": "{tablets}"
               },
               "daysSupply": {
                  "value": 30,
                  "unit": "days",
                  "system": "http://unitsofmeasure.org",
                  "code": "d"
               },
               "medicationCodeableConcept": {
                  "coding": [
                     {
                        "system": "http://www.nlm.nih.gov/research/umls/rxnorm",
                        "code": "877300",
                        "display": "{4 (Risedronate 35 MG Oral Tablet [Actonel]) } Pack [Actonel 35]"
                     }
                  ],
                  "text": "{4 (Risedronate 35 MG Oral Tablet [Actonel]) } Pack [Actonel 35]"
               },
               "whenHandedOver": "2004-01-20"
            },
            "search": {
               "mode": "match"
            }
         },
         {
            "fullUrl": "http://165.227.51.4:9002/baseDstu2/MedicationDispense/smart-medicationdispense-892",
            "resource": {
               "resourceType": "MedicationDispense",
               "id": "smart-medicationdispense-892",
               "meta": {
                  "versionId": "1",
                  "lastUpdated": "2019-08-23T22:11:57.615+00:00",
                  "security": [
                     {
                        "system": "http://smarthealthit.org/security/categories",
                        "code": "medications"
                     },
                     {
                        "system": "http://smarthealthit.org/security/users",
                        "code": "Patient/smart-1157764"
                     }
                  ]
               },
               "text": {
                  "fhir_comments": [
                     "  insert contents here  "
                  ],
                  "status": "generated",
                  "div": "<div xmlns=\"http://www.w3.org/1999/xhtml\">      Dispensed 4 tablets = 30 day supply of {4 (Risedronate 35 MG Oral Tablet [Actonel]) } Pack [Actonel 35]    </div>"
               },
               "status": "completed",
               "patient": {
                  "reference": "Patient/smart-1157764"
               },
               "authorizingPrescription": [
                  {
                     "reference": "MedicationOrder/smart-medicationorder-129"
                  }
               ],
               "quantity": {
                  "value": 4,
                  "unit": "tablets",
                  "system": "http://unitsofmeasure.org",
                  "code": "{tablets}"
               },
               "daysSupply": {
                  "value": 30,
                  "unit": "days",
                  "system": "http://unitsofmeasure.org",
                  "code": "d"
               },
               "medicationCodeableConcept": {
                  "coding": [
                     {
                        "system": "http://www.nlm.nih.gov/research/umls/rxnorm",
                        "code": "877300",
                        "display": "{4 (Risedronate 35 MG Oral Tablet [Actonel]) } Pack [Actonel 35]"
                     }
                  ],
                  "text": "{4 (Risedronate 35 MG Oral Tablet [Actonel]) } Pack [Actonel 35]"
               },
               "whenHandedOver": "2004-09-04"
            },
            "search": {
               "mode": "match"
            }
         },
         {
            "fullUrl": "http://165.227.51.4:9002/baseDstu2/MedicationDispense/smart-medicationdispense-905",
            "resource": {
               "resourceType": "MedicationDispense",
               "id": "smart-medicationdispense-905",
               "meta": {
                  "versionId": "1",
                  "lastUpdated": "2019-08-23T22:11:57.615+00:00",
                  "security": [
                     {
                        "system": "http://smarthealthit.org/security/categories",
                        "code": "medications"
                     },
                     {
                        "system": "http://smarthealthit.org/security/users",
                        "code": "Patient/smart-1157764"
                     }
                  ]
               },
               "text": {
                  "fhir_comments": [
                     "  insert contents here  "
                  ],
                  "status": "generated",
                  "div": "<div xmlns=\"http://www.w3.org/1999/xhtml\">      Dispensed 4 tablets = 30 day supply of {4 (Risedronate 35 MG Oral Tablet [Actonel]) } Pack [Actonel 35]    </div>"
               },
               "status": "completed",
               "patient": {
                  "reference": "Patient/smart-1157764"
               },
               "authorizingPrescription": [
                  {
                     "reference": "MedicationOrder/smart-medicationorder-129"
                  }
               ],
               "quantity": {
                  "value": 4,
                  "unit": "tablets",
                  "system": "http://unitsofmeasure.org",
                  "code": "{tablets}"
               },
               "daysSupply": {
                  "value": 30,
                  "unit": "days",
                  "system": "http://unitsofmeasure.org",
                  "code": "d"
               },
               "medicationCodeableConcept": {
                  "coding": [
                     {
                        "system": "http://www.nlm.nih.gov/research/umls/rxnorm",
                        "code": "877300",
                        "display": "{4 (Risedronate 35 MG Oral Tablet [Actonel]) } Pack [Actonel 35]"
                     }
                  ],
                  "text": "{4 (Risedronate 35 MG Oral Tablet [Actonel]) } Pack [Actonel 35]"
               },
               "whenHandedOver": "2005-09-02"
            },
            "search": {
               "mode": "match"
            }
         },
         {
            "fullUrl": "http://165.227.51.4:9002/baseDstu2/MedicationDispense/smart-medicationdispense-886",
            "resource": {
               "resourceType": "MedicationDispense",
               "id": "smart-medicationdispense-886",
               "meta": {
                  "versionId": "1",
                  "lastUpdated": "2019-08-23T22:11:57.615+00:00",
                  "security": [
                     {
                        "system": "http://smarthealthit.org/security/users",
                        "code": "Patient/smart-1157764"
                     },
                     {
                        "system": "http://smarthealthit.org/security/categories",
                        "code": "medications"
                     }
                  ]
               },
               "text": {
                  "fhir_comments": [
                     "  insert contents here  "
                  ],
                  "status": "generated",
                  "div": "<div xmlns=\"http://www.w3.org/1999/xhtml\">      Dispensed 4 tablets = 30 day supply of {4 (Risedronate 35 MG Oral Tablet [Actonel]) } Pack [Actonel 35]    </div>"
               },
               "status": "completed",
               "patient": {
                  "reference": "Patient/smart-1157764"
               },
               "authorizingPrescription": [
                  {
                     "reference": "MedicationOrder/smart-medicationorder-129"
                  }
               ],
               "quantity": {
                  "value": 4,
                  "unit": "tablets",
                  "system": "http://unitsofmeasure.org",
                  "code": "{tablets}"
               },
               "daysSupply": {
                  "value": 30,
                  "unit": "days",
                  "system": "http://unitsofmeasure.org",
                  "code": "d"
               },
               "medicationCodeableConcept": {
                  "coding": [
                     {
                        "system": "http://www.nlm.nih.gov/research/umls/rxnorm",
                        "code": "877300",
                        "display": "{4 (Risedronate 35 MG Oral Tablet [Actonel]) } Pack [Actonel 35]"
                     }
                  ],
                  "text": "{4 (Risedronate 35 MG Oral Tablet [Actonel]) } Pack [Actonel 35]"
               },
               "whenHandedOver": "2004-03-20"
            },
            "search": {
               "mode": "match"
            }
         },
         {
            "fullUrl": "http://165.227.51.4:9002/baseDstu2/MedicationDispense/smart-medicationdispense-904",
            "resource": {
               "resourceType": "MedicationDispense",
               "id": "smart-medicationdispense-904",
               "meta": {
                  "versionId": "1",
                  "lastUpdated": "2019-08-23T22:11:57.615+00:00",
                  "security": [
                     {
                        "system": "http://smarthealthit.org/security/categories",
                        "code": "medications"
                     },
                     {
                        "system": "http://smarthealthit.org/security/users",
                        "code": "Patient/smart-1157764"
                     }
                  ]
               },
               "text": {
                  "fhir_comments": [
                     "  insert contents here  "
                  ],
                  "status": "generated",
                  "div": "<div xmlns=\"http://www.w3.org/1999/xhtml\">      Dispensed 4 tablets = 30 day supply of {4 (Risedronate 35 MG Oral Tablet [Actonel]) } Pack [Actonel 35]    </div>"
               },
               "status": "completed",
               "patient": {
                  "reference": "Patient/smart-1157764"
               },
               "authorizingPrescription": [
                  {
                     "reference": "MedicationOrder/smart-medicationorder-129"
                  }
               ],
               "quantity": {
                  "value": 4,
                  "unit": "tablets",
                  "system": "http://unitsofmeasure.org",
                  "code": "{tablets}"
               },
               "daysSupply": {
                  "value": 30,
                  "unit": "days",
                  "system": "http://unitsofmeasure.org",
                  "code": "d"
               },
               "medicationCodeableConcept": {
                  "coding": [
                     {
                        "system": "http://www.nlm.nih.gov/research/umls/rxnorm",
                        "code": "877300",
                        "display": "{4 (Risedronate 35 MG Oral Tablet [Actonel]) } Pack [Actonel 35]"
                     }
                  ],
                  "text": "{4 (Risedronate 35 MG Oral Tablet [Actonel]) } Pack [Actonel 35]"
               },
               "whenHandedOver": "2005-08-03"
            },
            "search": {
               "mode": "match"
            }
         },
         {
            "fullUrl": "http://165.227.51.4:9002/baseDstu2/MedicationDispense/smart-medicationdispense-882",
            "resource": {
               "resourceType": "MedicationDispense",
               "id": "smart-medicationdispense-882",
               "meta": {
                  "versionId": "1",
                  "lastUpdated": "2019-08-23T22:11:57.615+00:00",
                  "security": [
                     {
                        "system": "http://smarthealthit.org/security/categories",
                        "code": "medications"
                     },
                     {
                        "system": "http://smarthealthit.org/security/users",
                        "code": "Patient/smart-1157764"
                     }
                  ]
               },
               "text": {
                  "fhir_comments": [
                     "  insert contents here  "
                  ],
                  "status": "generated",
                  "div": "<div xmlns=\"http://www.w3.org/1999/xhtml\">      Dispensed 4 tablets = 30 day supply of {4 (Risedronate 35 MG Oral Tablet [Actonel]) } Pack [Actonel 35]    </div>"
               },
               "status": "completed",
               "patient": {
                  "reference": "Patient/smart-1157764"
               },
               "authorizingPrescription": [
                  {
                     "reference": "MedicationOrder/smart-medicationorder-129"
                  }
               ],
               "quantity": {
                  "value": 4,
                  "unit": "tablets",
                  "system": "http://unitsofmeasure.org",
                  "code": "{tablets}"
               },
               "daysSupply": {
                  "value": 30,
                  "unit": "days",
                  "system": "http://unitsofmeasure.org",
                  "code": "d"
               },
               "medicationCodeableConcept": {
                  "coding": [
                     {
                        "system": "http://www.nlm.nih.gov/research/umls/rxnorm",
                        "code": "877300",
                        "display": "{4 (Risedronate 35 MG Oral Tablet [Actonel]) } Pack [Actonel 35]"
                     }
                  ],
                  "text": "{4 (Risedronate 35 MG Oral Tablet [Actonel]) } Pack [Actonel 35]"
               },
               "whenHandedOver": "2003-11-30"
            },
            "search": {
               "mode": "match"
            }
         },
         {
            "fullUrl": "http://165.227.51.4:9002/baseDstu2/MedicationDispense/smart-medicationdispense-885",
            "resource": {
               "resourceType": "MedicationDispense",
               "id": "smart-medicationdispense-885",
               "meta": {
                  "versionId": "1",
                  "lastUpdated": "2019-08-23T22:11:57.615+00:00",
                  "security": [
                     {
                        "system": "http://smarthealthit.org/security/users",
                        "code": "Patient/smart-1157764"
                     },
                     {
                        "system": "http://smarthealthit.org/security/categories",
                        "code": "medications"
                     }
                  ]
               },
               "text": {
                  "fhir_comments": [
                     "  insert contents here  "
                  ],
                  "status": "generated",
                  "div": "<div xmlns=\"http://www.w3.org/1999/xhtml\">      Dispensed 4 tablets = 30 day supply of {4 (Risedronate 35 MG Oral Tablet [Actonel]) } Pack [Actonel 35]    </div>"
               },
               "status": "completed",
               "patient": {
                  "reference": "Patient/smart-1157764"
               },
               "authorizingPrescription": [
                  {
                     "reference": "MedicationOrder/smart-medicationorder-129"
                  }
               ],
               "quantity": {
                  "value": 4,
                  "unit": "tablets",
                  "system": "http://unitsofmeasure.org",
                  "code": "{tablets}"
               },
               "daysSupply": {
                  "value": 30,
                  "unit": "days",
                  "system": "http://unitsofmeasure.org",
                  "code": "d"
               },
               "medicationCodeableConcept": {
                  "coding": [
                     {
                        "system": "http://www.nlm.nih.gov/research/umls/rxnorm",
                        "code": "877300",
                        "display": "{4 (Risedronate 35 MG Oral Tablet [Actonel]) } Pack [Actonel 35]"
                     }
                  ],
                  "text": "{4 (Risedronate 35 MG Oral Tablet [Actonel]) } Pack [Actonel 35]"
               },
               "whenHandedOver": "2004-02-18"
            },
            "search": {
               "mode": "match"
            }
         },
         {
            "fullUrl": "http://165.227.51.4:9002/baseDstu2/MedicationDispense/smart-medicationdispense-901",
            "resource": {
               "resourceType": "MedicationDispense",
               "id": "smart-medicationdispense-901",
               "meta": {
                  "versionId": "1",
                  "lastUpdated": "2019-08-23T22:11:57.615+00:00",
                  "security": [
                     {
                        "system": "http://smarthealthit.org/security/users",
                        "code": "Patient/smart-1157764"
                     },
                     {
                        "system": "http://smarthealthit.org/security/categories",
                        "code": "medications"
                     }
                  ]
               },
               "text": {
                  "fhir_comments": [
                     "  insert contents here  "
                  ],
                  "status": "generated",
                  "div": "<div xmlns=\"http://www.w3.org/1999/xhtml\">      Dispensed 4 tablets = 30 day supply of {4 (Risedronate 35 MG Oral Tablet [Actonel]) } Pack [Actonel 35]    </div>"
               },
               "status": "completed",
               "patient": {
                  "reference": "Patient/smart-1157764"
               },
               "authorizingPrescription": [
                  {
                     "reference": "MedicationOrder/smart-medicationorder-129"
                  }
               ],
               "quantity": {
                  "value": 4,
                  "unit": "tablets",
                  "system": "http://unitsofmeasure.org",
                  "code": "{tablets}"
               },
               "daysSupply": {
                  "value": 30,
                  "unit": "days",
                  "system": "http://unitsofmeasure.org",
                  "code": "d"
               },
               "medicationCodeableConcept": {
                  "coding": [
                     {
                        "system": "http://www.nlm.nih.gov/research/umls/rxnorm",
                        "code": "877300",
                        "display": "{4 (Risedronate 35 MG Oral Tablet [Actonel]) } Pack [Actonel 35]"
                     }
                  ],
                  "text": "{4 (Risedronate 35 MG Oral Tablet [Actonel]) } Pack [Actonel 35]"
               },
               "whenHandedOver": "2005-05-15"
            },
            "search": {
               "mode": "match"
            }
         },
         {
            "fullUrl": "http://165.227.51.4:9002/baseDstu2/MedicationDispense/smart-medicationdispense-896",
            "resource": {
               "resourceType": "MedicationDispense",
               "id": "smart-medicationdispense-896",
               "meta": {
                  "versionId": "1",
                  "lastUpdated": "2019-08-23T22:11:57.615+00:00",
                  "security": [
                     {
                        "system": "http://smarthealthit.org/security/categories",
                        "code": "medications"
                     },
                     {
                        "system": "http://smarthealthit.org/security/users",
                        "code": "Patient/smart-1157764"
                     }
                  ]
               },
               "text": {
                  "fhir_comments": [
                     "  insert contents here  "
                  ],
                  "status": "generated",
                  "div": "<div xmlns=\"http://www.w3.org/1999/xhtml\">      Dispensed 4 tablets = 30 day supply of {4 (Risedronate 35 MG Oral Tablet [Actonel]) } Pack [Actonel 35]    </div>"
               },
               "status": "completed",
               "patient": {
                  "reference": "Patient/smart-1157764"
               },
               "authorizingPrescription": [
                  {
                     "reference": "MedicationOrder/smart-medicationorder-129"
                  }
               ],
               "quantity": {
                  "value": 4,
                  "unit": "tablets",
                  "system": "http://unitsofmeasure.org",
                  "code": "{tablets}"
               },
               "daysSupply": {
                  "value": 30,
                  "unit": "days",
                  "system": "http://unitsofmeasure.org",
                  "code": "d"
               },
               "medicationCodeableConcept": {
                  "coding": [
                     {
                        "system": "http://www.nlm.nih.gov/research/umls/rxnorm",
                        "code": "877300",
                        "display": "{4 (Risedronate 35 MG Oral Tablet [Actonel]) } Pack [Actonel 35]"
                     }
                  ],
                  "text": "{4 (Risedronate 35 MG Oral Tablet [Actonel]) } Pack [Actonel 35]"
               },
               "whenHandedOver": "2004-12-26"
            },
            "search": {
               "mode": "match"
            }
         },
         {
            "fullUrl": "http://165.227.51.4:9002/baseDstu2/MedicationDispense/smart-medicationdispense-895",
            "resource": {
               "resourceType": "MedicationDispense",
               "id": "smart-medicationdispense-895",
               "meta": {
                  "versionId": "1",
                  "lastUpdated": "2019-08-23T22:11:57.615+00:00",
                  "security": [
                     {
                        "system": "http://smarthealthit.org/security/users",
                        "code": "Patient/smart-1157764"
                     },
                     {
                        "system": "http://smarthealthit.org/security/categories",
                        "code": "medications"
                     }
                  ]
               },
               "text": {
                  "fhir_comments": [
                     "  insert contents here  "
                  ],
                  "status": "generated",
                  "div": "<div xmlns=\"http://www.w3.org/1999/xhtml\">      Dispensed 4 tablets = 30 day supply of {4 (Risedronate 35 MG Oral Tablet [Actonel]) } Pack [Actonel 35]    </div>"
               },
               "status": "completed",
               "patient": {
                  "reference": "Patient/smart-1157764"
               },
               "authorizingPrescription": [
                  {
                     "reference": "MedicationOrder/smart-medicationorder-129"
                  }
               ],
               "quantity": {
                  "value": 4,
                  "unit": "tablets",
                  "system": "http://unitsofmeasure.org",
                  "code": "{tablets}"
               },
               "daysSupply": {
                  "value": 30,
                  "unit": "days",
                  "system": "http://unitsofmeasure.org",
                  "code": "d"
               },
               "medicationCodeableConcept": {
                  "coding": [
                     {
                        "system": "http://www.nlm.nih.gov/research/umls/rxnorm",
                        "code": "877300",
                        "display": "{4 (Risedronate 35 MG Oral Tablet [Actonel]) } Pack [Actonel 35]"
                     }
                  ],
                  "text": "{4 (Risedronate 35 MG Oral Tablet [Actonel]) } Pack [Actonel 35]"
               },
               "whenHandedOver": "2004-11-25"
            },
            "search": {
               "mode": "match"
            }
         },
         {
            "fullUrl": "http://165.227.51.4:9002/baseDstu2/MedicationDispense/smart-medicationdispense-883",
            "resource": {
               "resourceType": "MedicationDispense",
               "id": "smart-medicationdispense-883",
               "meta": {
                  "versionId": "1",
                  "lastUpdated": "2019-08-23T22:11:57.615+00:00",
                  "security": [
                     {
                        "system": "http://smarthealthit.org/security/users",
                        "code": "Patient/smart-1157764"
                     },
                     {
                        "system": "http://smarthealthit.org/security/categories",
                        "code": "medications"
                     }
                  ]
               },
               "text": {
                  "fhir_comments": [
                     "  insert contents here  "
                  ],
                  "status": "generated",
                  "div": "<div xmlns=\"http://www.w3.org/1999/xhtml\">      Dispensed 4 tablets = 30 day supply of {4 (Risedronate 35 MG Oral Tablet [Actonel]) } Pack [Actonel 35]    </div>"
               },
               "status": "completed",
               "patient": {
                  "reference": "Patient/smart-1157764"
               },
               "authorizingPrescription": [
                  {
                     "reference": "MedicationOrder/smart-medicationorder-129"
                  }
               ],
               "quantity": {
                  "value": 4,
                  "unit": "tablets",
                  "system": "http://unitsofmeasure.org",
                  "code": "{tablets}"
               },
               "daysSupply": {
                  "value": 30,
                  "unit": "days",
                  "system": "http://unitsofmeasure.org",
                  "code": "d"
               },
               "medicationCodeableConcept": {
                  "coding": [
                     {
                        "system": "http://www.nlm.nih.gov/research/umls/rxnorm",
                        "code": "877300",
                        "display": "{4 (Risedronate 35 MG Oral Tablet [Actonel]) } Pack [Actonel 35]"
                     }
                  ],
                  "text": "{4 (Risedronate 35 MG Oral Tablet [Actonel]) } Pack [Actonel 35]"
               },
               "whenHandedOver": "2003-12-28"
            },
            "search": {
               "mode": "match"
            }
         },
         {
            "fullUrl": "http://165.227.51.4:9002/baseDstu2/MedicationDispense/smart-medicationdispense-893",
            "resource": {
               "resourceType": "MedicationDispense",
               "id": "smart-medicationdispense-893",
               "meta": {
                  "versionId": "1",
                  "lastUpdated": "2019-08-23T22:11:57.615+00:00",
                  "security": [
                     {
                        "system": "http://smarthealthit.org/security/categories",
                        "code": "medications"
                     },
                     {
                        "system": "http://smarthealthit.org/security/users",
                        "code": "Patient/smart-1157764"
                     }
                  ]
               },
               "text": {
                  "fhir_comments": [
                     "  insert contents here  "
                  ],
                  "status": "generated",
                  "div": "<div xmlns=\"http://www.w3.org/1999/xhtml\">      Dispensed 4 tablets = 30 day supply of {4 (Risedronate 35 MG Oral Tablet [Actonel]) } Pack [Actonel 35]    </div>"
               },
               "status": "completed",
               "patient": {
                  "reference": "Patient/smart-1157764"
               },
               "authorizingPrescription": [
                  {
                     "reference": "MedicationOrder/smart-medicationorder-129"
                  }
               ],
               "quantity": {
                  "value": 4,
                  "unit": "tablets",
                  "system": "http://unitsofmeasure.org",
                  "code": "{tablets}"
               },
               "daysSupply": {
                  "value": 30,
                  "unit": "days",
                  "system": "http://unitsofmeasure.org",
                  "code": "d"
               },
               "medicationCodeableConcept": {
                  "coding": [
                     {
                        "system": "http://www.nlm.nih.gov/research/umls/rxnorm",
                        "code": "877300",
                        "display": "{4 (Risedronate 35 MG Oral Tablet [Actonel]) } Pack [Actonel 35]"
                     }
                  ],
                  "text": "{4 (Risedronate 35 MG Oral Tablet [Actonel]) } Pack [Actonel 35]"
               },
               "whenHandedOver": "2004-09-28"
            },
            "search": {
               "mode": "match"
            }
         },
         {
            "fullUrl": "http://165.227.51.4:9002/baseDstu2/MedicationDispense/smart-medicationdispense-907",
            "resource": {
               "resourceType": "MedicationDispense",
               "id": "smart-medicationdispense-907",
               "meta": {
                  "versionId": "1",
                  "lastUpdated": "2019-08-23T22:11:57.615+00:00",
                  "security": [
                     {
                        "system": "http://smarthealthit.org/security/users",
                        "code": "Patient/smart-1157764"
                     },
                     {
                        "system": "http://smarthealthit.org/security/categories",
                        "code": "medications"
                     }
                  ]
               },
               "text": {
                  "fhir_comments": [
                     "  insert contents here  "
                  ],
                  "status": "generated",
                  "div": "<div xmlns=\"http://www.w3.org/1999/xhtml\">      Dispensed 4 tablets = 30 day supply of {4 (Risedronate 35 MG Oral Tablet [Actonel]) } Pack [Actonel 35]    </div>"
               },
               "status": "completed",
               "patient": {
                  "reference": "Patient/smart-1157764"
               },
               "authorizingPrescription": [
                  {
                     "reference": "MedicationOrder/smart-medicationorder-129"
                  }
               ],
               "quantity": {
                  "value": 4,
                  "unit": "tablets",
                  "system": "http://unitsofmeasure.org",
                  "code": "{tablets}"
               },
               "daysSupply": {
                  "value": 30,
                  "unit": "days",
                  "system": "http://unitsofmeasure.org",
                  "code": "d"
               },
               "medicationCodeableConcept": {
                  "coding": [
                     {
                        "system": "http://www.nlm.nih.gov/research/umls/rxnorm",
                        "code": "877300",
                        "display": "{4 (Risedronate 35 MG Oral Tablet [Actonel]) } Pack [Actonel 35]"
                     }
                  ],
                  "text": "{4 (Risedronate 35 MG Oral Tablet [Actonel]) } Pack [Actonel 35]"
               },
               "whenHandedOver": "2005-11-27"
            },
            "search": {
               "mode": "match"
            }
         },
         {
            "fullUrl": "http://165.227.51.4:9002/baseDstu2/MedicationDispense/smart-medicationdispense-888",
            "resource": {
               "resourceType": "MedicationDispense",
               "id": "smart-medicationdispense-888",
               "meta": {
                  "versionId": "1",
                  "lastUpdated": "2019-08-23T22:11:57.615+00:00",
                  "security": [
                     {
                        "system": "http://smarthealthit.org/security/users",
                        "code": "Patient/smart-1157764"
                     },
                     {
                        "system": "http://smarthealthit.org/security/categories",
                        "code": "medications"
                     }
                  ]
               },
               "text": {
                  "fhir_comments": [
                     "  insert contents here  "
                  ],
                  "status": "generated",
                  "div": "<div xmlns=\"http://www.w3.org/1999/xhtml\">      Dispensed 4 tablets = 30 day supply of {4 (Risedronate 35 MG Oral Tablet [Actonel]) } Pack [Actonel 35]    </div>"
               },
               "status": "completed",
               "patient": {
                  "reference": "Patient/smart-1157764"
               },
               "authorizingPrescription": [
                  {
                     "reference": "MedicationOrder/smart-medicationorder-129"
                  }
               ],
               "quantity": {
                  "value": 4,
                  "unit": "tablets",
                  "system": "http://unitsofmeasure.org",
                  "code": "{tablets}"
               },
               "daysSupply": {
                  "value": 30,
                  "unit": "days",
                  "system": "http://unitsofmeasure.org",
                  "code": "d"
               },
               "medicationCodeableConcept": {
                  "coding": [
                     {
                        "system": "http://www.nlm.nih.gov/research/umls/rxnorm",
                        "code": "877300",
                        "display": "{4 (Risedronate 35 MG Oral Tablet [Actonel]) } Pack [Actonel 35]"
                     }
                  ],
                  "text": "{4 (Risedronate 35 MG Oral Tablet [Actonel]) } Pack [Actonel 35]"
               },
               "whenHandedOver": "2004-05-10"
            },
            "search": {
               "mode": "match"
            }
         },
         {
            "fullUrl": "http://165.227.51.4:9002/baseDstu2/MedicationDispense/smart-medicationdispense-887",
            "resource": {
               "resourceType": "MedicationDispense",
               "id": "smart-medicationdispense-887",
               "meta": {
                  "versionId": "1",
                  "lastUpdated": "2019-08-23T22:11:57.615+00:00",
                  "security": [
                     {
                        "system": "http://smarthealthit.org/security/categories",
                        "code": "medications"
                     },
                     {
                        "system": "http://smarthealthit.org/security/users",
                        "code": "Patient/smart-1157764"
                     }
                  ]
               },
               "text": {
                  "fhir_comments": [
                     "  insert contents here  "
                  ],
                  "status": "generated",
                  "div": "<div xmlns=\"http://www.w3.org/1999/xhtml\">      Dispensed 4 tablets = 30 day supply of {4 (Risedronate 35 MG Oral Tablet [Actonel]) } Pack [Actonel 35]    </div>"
               },
               "status": "completed",
               "patient": {
                  "reference": "Patient/smart-1157764"
               },
               "authorizingPrescription": [
                  {
                     "reference": "MedicationOrder/smart-medicationorder-129"
                  }
               ],
               "quantity": {
                  "value": 4,
                  "unit": "tablets",
                  "system": "http://unitsofmeasure.org",
                  "code": "{tablets}"
               },
               "daysSupply": {
                  "value": 30,
                  "unit": "days",
                  "system": "http://unitsofmeasure.org",
                  "code": "d"
               },
               "medicationCodeableConcept": {
                  "coding": [
                     {
                        "system": "http://www.nlm.nih.gov/research/umls/rxnorm",
                        "code": "877300",
                        "display": "{4 (Risedronate 35 MG Oral Tablet [Actonel]) } Pack [Actonel 35]"
                     }
                  ],
                  "text": "{4 (Risedronate 35 MG Oral Tablet [Actonel]) } Pack [Actonel 35]"
               },
               "whenHandedOver": "2004-04-19"
            },
            "search": {
               "mode": "match"
            }
         },
         {
            "fullUrl": "http://165.227.51.4:9002/baseDstu2/MedicationDispense/smart-medicationdispense-897",
            "resource": {
               "resourceType": "MedicationDispense",
               "id": "smart-medicationdispense-897",
               "meta": {
                  "versionId": "1",
                  "lastUpdated": "2019-08-23T22:11:57.615+00:00",
                  "security": [
                     {
                        "system": "http://smarthealthit.org/security/categories",
                        "code": "medications"
                     },
                     {
                        "system": "http://smarthealthit.org/security/users",
                        "code": "Patient/smart-1157764"
                     }
                  ]
               },
               "text": {
                  "fhir_comments": [
                     "  insert contents here  "
                  ],
                  "status": "generated",
                  "div": "<div xmlns=\"http://www.w3.org/1999/xhtml\">      Dispensed 4 tablets = 30 day supply of {4 (Risedronate 35 MG Oral Tablet [Actonel]) } Pack [Actonel 35]    </div>"
               },
               "status": "completed",
               "patient": {
                  "reference": "Patient/smart-1157764"
               },
               "authorizingPrescription": [
                  {
                     "reference": "MedicationOrder/smart-medicationorder-129"
                  }
               ],
               "quantity": {
                  "value": 4,
                  "unit": "tablets",
                  "system": "http://unitsofmeasure.org",
                  "code": "{tablets}"
               },
               "daysSupply": {
                  "value": 30,
                  "unit": "days",
                  "system": "http://unitsofmeasure.org",
                  "code": "d"
               },
               "medicationCodeableConcept": {
                  "coding": [
                     {
                        "system": "http://www.nlm.nih.gov/research/umls/rxnorm",
                        "code": "877300",
                        "display": "{4 (Risedronate 35 MG Oral Tablet [Actonel]) } Pack [Actonel 35]"
                     }
                  ],
                  "text": "{4 (Risedronate 35 MG Oral Tablet [Actonel]) } Pack [Actonel 35]"
               },
               "whenHandedOver": "2005-01-23"
            },
            "search": {
               "mode": "match"
            }
         },
         {
            "fullUrl": "http://165.227.51.4:9002/baseDstu2/MedicationDispense/smart-medicationdispense-906",
            "resource": {
               "resourceType": "MedicationDispense",
               "id": "smart-medicationdispense-906",
               "meta": {
                  "versionId": "1",
                  "lastUpdated": "2019-08-23T22:11:57.615+00:00",
                  "security": [
                     {
                        "system": "http://smarthealthit.org/security/users",
                        "code": "Patient/smart-1157764"
                     },
                     {
                        "system": "http://smarthealthit.org/security/categories",
                        "code": "medications"
                     }
                  ]
               },
               "text": {
                  "fhir_comments": [
                     "  insert contents here  "
                  ],
                  "status": "generated",
                  "div": "<div xmlns=\"http://www.w3.org/1999/xhtml\">      Dispensed 4 tablets = 30 day supply of {4 (Risedronate 35 MG Oral Tablet [Actonel]) } Pack [Actonel 35]    </div>"
               },
               "status": "completed",
               "patient": {
                  "reference": "Patient/smart-1157764"
               },
               "authorizingPrescription": [
                  {
                     "reference": "MedicationOrder/smart-medicationorder-129"
                  }
               ],
               "quantity": {
                  "value": 4,
                  "unit": "tablets",
                  "system": "http://unitsofmeasure.org",
                  "code": "{tablets}"
               },
               "daysSupply": {
                  "value": 30,
                  "unit": "days",
                  "system": "http://unitsofmeasure.org",
                  "code": "d"
               },
               "medicationCodeableConcept": {
                  "coding": [
                     {
                        "system": "http://www.nlm.nih.gov/research/umls/rxnorm",
                        "code": "877300",
                        "display": "{4 (Risedronate 35 MG Oral Tablet [Actonel]) } Pack [Actonel 35]"
                     }
                  ],
                  "text": "{4 (Risedronate 35 MG Oral Tablet [Actonel]) } Pack [Actonel 35]"
               },
               "whenHandedOver": "2005-10-30"
            },
            "search": {
               "mode": "match"
            }
         },
         {
            "fullUrl": "http://165.227.51.4:9002/baseDstu2/MedicationDispense/smart-medicationdispense-903",
            "resource": {
               "resourceType": "MedicationDispense",
               "id": "smart-medicationdispense-903",
               "meta": {
                  "versionId": "1",
                  "lastUpdated": "2019-08-23T22:11:57.615+00:00",
                  "security": [
                     {
                        "system": "http://smarthealthit.org/security/categories",
                        "code": "medications"
                     },
                     {
                        "system": "http://smarthealthit.org/security/users",
                        "code": "Patient/smart-1157764"
                     }
                  ]
               },
               "text": {
                  "fhir_comments": [
                     "  insert contents here  "
                  ],
                  "status": "generated",
                  "div": "<div xmlns=\"http://www.w3.org/1999/xhtml\">      Dispensed 4 tablets = 30 day supply of {4 (Risedronate 35 MG Oral Tablet [Actonel]) } Pack [Actonel 35]    </div>"
               },
               "status": "completed",
               "patient": {
                  "reference": "Patient/smart-1157764"
               },
               "authorizingPrescription": [
                  {
                     "reference": "MedicationOrder/smart-medicationorder-129"
                  }
               ],
               "quantity": {
                  "value": 4,
                  "unit": "tablets",
                  "system": "http://unitsofmeasure.org",
                  "code": "{tablets}"
               },
               "daysSupply": {
                  "value": 30,
                  "unit": "days",
                  "system": "http://unitsofmeasure.org",
                  "code": "d"
               },
               "medicationCodeableConcept": {
                  "coding": [
                     {
                        "system": "http://www.nlm.nih.gov/research/umls/rxnorm",
                        "code": "877300",
                        "display": "{4 (Risedronate 35 MG Oral Tablet [Actonel]) } Pack [Actonel 35]"
                     }
                  ],
                  "text": "{4 (Risedronate 35 MG Oral Tablet [Actonel]) } Pack [Actonel 35]"
               },
               "whenHandedOver": "2005-07-04"
            },
            "search": {
               "mode": "match"
            }
         },
         {
            "fullUrl": "http://165.227.51.4:9002/baseDstu2/MedicationDispense/smart-medicationdispense-909",
            "resource": {
               "resourceType": "MedicationDispense",
               "id": "smart-medicationdispense-909",
               "meta": {
                  "versionId": "1",
                  "lastUpdated": "2019-08-23T22:11:57.615+00:00",
                  "security": [
                     {
                        "system": "http://smarthealthit.org/security/categories",
                        "code": "medications"
                     },
                     {
                        "system": "http://smarthealthit.org/security/users",
                        "code": "Patient/smart-1157764"
                     }
                  ]
               },
               "text": {
                  "fhir_comments": [
                     "  insert contents here  "
                  ],
                  "status": "generated",
                  "div": "<div xmlns=\"http://www.w3.org/1999/xhtml\">      Dispensed 4 tablets = 30 day supply of {4 (Risedronate 35 MG Oral Tablet [Actonel]) } Pack [Actonel 35]    </div>"
               },
               "status": "completed",
               "patient": {
                  "reference": "Patient/smart-1157764"
               },
               "authorizingPrescription": [
                  {
                     "reference": "MedicationOrder/smart-medicationorder-129"
                  }
               ],
               "quantity": {
                  "value": 4,
                  "unit": "tablets",
                  "system": "http://unitsofmeasure.org",
                  "code": "{tablets}"
               },
               "daysSupply": {
                  "value": 30,
                  "unit": "days",
                  "system": "http://unitsofmeasure.org",
                  "code": "d"
               },
               "medicationCodeableConcept": {
                  "coding": [
                     {
                        "system": "http://www.nlm.nih.gov/research/umls/rxnorm",
                        "code": "877300",
                        "display": "{4 (Risedronate 35 MG Oral Tablet [Actonel]) } Pack [Actonel 35]"
                     }
                  ],
                  "text": "{4 (Risedronate 35 MG Oral Tablet [Actonel]) } Pack [Actonel 35]"
               },
               "whenHandedOver": "2006-01-20"
            },
            "search": {
               "mode": "match"
            }
         },
         {
            "fullUrl": "http://165.227.51.4:9002/baseDstu2/MedicationDispense/smart-medicationdispense-894",
            "resource": {
               "resourceType": "MedicationDispense",
               "id": "smart-medicationdispense-894",
               "meta": {
                  "versionId": "1",
                  "lastUpdated": "2019-08-23T22:11:57.615+00:00",
                  "security": [
                     {
                        "system": "http://smarthealthit.org/security/users",
                        "code": "Patient/smart-1157764"
                     },
                     {
                        "system": "http://smarthealthit.org/security/categories",
                        "code": "medications"
                     }
                  ]
               },
               "text": {
                  "fhir_comments": [
                     "  insert contents here  "
                  ],
                  "status": "generated",
                  "div": "<div xmlns=\"http://www.w3.org/1999/xhtml\">      Dispensed 4 tablets = 30 day supply of {4 (Risedronate 35 MG Oral Tablet [Actonel]) } Pack [Actonel 35]    </div>"
               },
               "status": "completed",
               "patient": {
                  "reference": "Patient/smart-1157764"
               },
               "authorizingPrescription": [
                  {
                     "reference": "MedicationOrder/smart-medicationorder-129"
                  }
               ],
               "quantity": {
                  "value": 4,
                  "unit": "tablets",
                  "system": "http://unitsofmeasure.org",
                  "code": "{tablets}"
               },
               "daysSupply": {
                  "value": 30,
                  "unit": "days",
                  "system": "http://unitsofmeasure.org",
                  "code": "d"
               },
               "medicationCodeableConcept": {
                  "coding": [
                     {
                        "system": "http://www.nlm.nih.gov/research/umls/rxnorm",
                        "code": "877300",
                        "display": "{4 (Risedronate 35 MG Oral Tablet [Actonel]) } Pack [Actonel 35]"
                     }
                  ],
                  "text": "{4 (Risedronate 35 MG Oral Tablet [Actonel]) } Pack [Actonel 35]"
               },
               "whenHandedOver": "2004-10-27"
            },
            "search": {
               "mode": "match"
            }
         },
         {
            "fullUrl": "http://165.227.51.4:9002/baseDstu2/MedicationDispense/smart-medicationdispense-881",
            "resource": {
               "resourceType": "MedicationDispense",
               "id": "smart-medicationdispense-881",
               "meta": {
                  "versionId": "1",
                  "lastUpdated": "2019-08-23T22:11:57.615+00:00",
                  "security": [
                     {
                        "system": "http://smarthealthit.org/security/categories",
                        "code": "medications"
                     },
                     {
                        "system": "http://smarthealthit.org/security/users",
                        "code": "Patient/smart-1157764"
                     }
                  ]
               },
               "text": {
                  "fhir_comments": [
                     "  insert contents here  "
                  ],
                  "status": "generated",
                  "div": "<div xmlns=\"http://www.w3.org/1999/xhtml\">      Dispensed 4 tablets = 30 day supply of {4 (Risedronate 35 MG Oral Tablet [Actonel]) } Pack [Actonel 35]    </div>"
               },
               "status": "completed",
               "patient": {
                  "reference": "Patient/smart-1157764"
               },
               "authorizingPrescription": [
                  {
                     "reference": "MedicationOrder/smart-medicationorder-129"
                  }
               ],
               "quantity": {
                  "value": 4,
                  "unit": "tablets",
                  "system": "http://unitsofmeasure.org",
                  "code": "{tablets}"
               },
               "daysSupply": {
                  "value": 30,
                  "unit": "days",
                  "system": "http://unitsofmeasure.org",
                  "code": "d"
               },
               "medicationCodeableConcept": {
                  "coding": [
                     {
                        "system": "http://www.nlm.nih.gov/research/umls/rxnorm",
                        "code": "877300",
                        "display": "{4 (Risedronate 35 MG Oral Tablet [Actonel]) } Pack [Actonel 35]"
                     }
                  ],
                  "text": "{4 (Risedronate 35 MG Oral Tablet [Actonel]) } Pack [Actonel 35]"
               },
               "whenHandedOver": "2003-11-02"
            },
            "search": {
               "mode": "match"
            }
         },
         {
            "fullUrl": "http://165.227.51.4:9002/baseDstu2/MedicationDispense/smart-medicationdispense-900",
            "resource": {
               "resourceType": "MedicationDispense",
               "id": "smart-medicationdispense-900",
               "meta": {
                  "versionId": "1",
                  "lastUpdated": "2019-08-23T22:11:57.615+00:00",
                  "security": [
                     {
                        "system": "http://smarthealthit.org/security/categories",
                        "code": "medications"
                     },
                     {
                        "system": "http://smarthealthit.org/security/users",
                        "code": "Patient/smart-1157764"
                     }
                  ]
               },
               "text": {
                  "fhir_comments": [
                     "  insert contents here  "
                  ],
                  "status": "generated",
                  "div": "<div xmlns=\"http://www.w3.org/1999/xhtml\">      Dispensed 4 tablets = 30 day supply of {4 (Risedronate 35 MG Oral Tablet [Actonel]) } Pack [Actonel 35]    </div>"
               },
               "status": "completed",
               "patient": {
                  "reference": "Patient/smart-1157764"
               },
               "authorizingPrescription": [
                  {
                     "reference": "MedicationOrder/smart-medicationorder-129"
                  }
               ],
               "quantity": {
                  "value": 4,
                  "unit": "tablets",
                  "system": "http://unitsofmeasure.org",
                  "code": "{tablets}"
               },
               "daysSupply": {
                  "value": 30,
                  "unit": "days",
                  "system": "http://unitsofmeasure.org",
                  "code": "d"
               },
               "medicationCodeableConcept": {
                  "coding": [
                     {
                        "system": "http://www.nlm.nih.gov/research/umls/rxnorm",
                        "code": "877300",
                        "display": "{4 (Risedronate 35 MG Oral Tablet [Actonel]) } Pack [Actonel 35]"
                     }
                  ],
                  "text": "{4 (Risedronate 35 MG Oral Tablet [Actonel]) } Pack [Actonel 35]"
               },
               "whenHandedOver": "2005-04-16"
            },
            "search": {
               "mode": "match"
            }
         },
         {
            "fullUrl": "http://165.227.51.4:9002/baseDstu2/MedicationOrder/smart-medicationorder-130",
            "resource": {
               "resourceType": "MedicationOrder",
               "id": "smart-medicationorder-130",
               "meta": {
                  "versionId": "1",
                  "lastUpdated": "2019-08-23T22:11:57.615+00:00",
                  "security": [
                     {
                        "system": "http://smarthealthit.org/security/users",
                        "code": "Patient/smart-1157764"
                     },
                     {
                        "system": "http://smarthealthit.org/security/categories",
                        "code": "medications"
                     }
                  ]
               },
               "text": {
                  "status": "generated",
                  "div": "<div xmlns=\"http://www.w3.org/1999/xhtml\">      Nitrofurantoin 100 MG Oral Capsule (rxnorm: 311992)    </div>"
               },
               "status": "active",
               "patient": {
                  "reference": "Patient/smart-1157764"
               },
               "medicationCodeableConcept": {
                  "coding": [
                     {
                        "system": "http://www.nlm.nih.gov/research/umls/rxnorm",
                        "code": "311992",
                        "display": "Nitrofurantoin 100 MG Oral Capsule"
                     }
                  ],
                  "text": "Nitrofurantoin 100 MG Oral Capsule"
               },
               "dosageInstruction": [
                  {
                     "text": "1 bid",
                     "timing": {
                        "repeat": {
                           "boundsPeriod": {
                              "start": "2006-10-31"
                           },
                           "frequency": 2,
                           "period": 1,
                           "periodUnits": "d"
                        }
                     },
                     "doseQuantity": {
                        "value": 1,
                        "unit": "{tablet}",
                        "system": "http://unitsofmeasure.org",
                        "code": "{tablet}"
                     }
                  }
               ],
               "dispenseRequest": {
                  "numberOfRepeatsAllowed": 1,
                  "quantity": {
                     "value": 60,
                     "unit": "{tablet}",
                     "system": "http://unitsofmeasure.org",
                     "code": "{tablet}"
                  },
                  "expectedSupplyDuration": {
                     "value": 30,
                     "unit": "days",
                     "system": "http://unitsofmeasure.org",
                     "code": "d"
                  }
               }
            },
            "search": {
               "mode": "include"
            }
         },
         {
            "fullUrl": "http://165.227.51.4:9002/baseDstu2/MedicationDispense/smart-medicationdispense-880",
            "resource": {
               "resourceType": "MedicationDispense",
               "id": "smart-medicationdispense-880",
               "meta": {
                  "versionId": "1",
                  "lastUpdated": "2019-08-23T22:11:57.615+00:00",
                  "security": [
                     {
                        "system": "http://smarthealthit.org/security/users",
                        "code": "Patient/smart-1157764"
                     },
                     {
                        "system": "http://smarthealthit.org/security/categories",
                        "code": "medications"
                     }
                  ]
               },
               "text": {
                  "fhir_comments": [
                     "  insert contents here  "
                  ],
                  "status": "generated",
                  "div": "<div xmlns=\"http://www.w3.org/1999/xhtml\">      Dispensed 60 tablets = 30 day supply of Nitrofurantoin 100 MG Oral Capsule    </div>"
               },
               "status": "completed",
               "patient": {
                  "reference": "Patient/smart-1157764"
               },
               "authorizingPrescription": [
                  {
                     "reference": "MedicationOrder/smart-medicationorder-130"
                  }
               ],
               "quantity": {
                  "value": 60,
                  "unit": "tablets",
                  "system": "http://unitsofmeasure.org",
                  "code": "{tablets}"
               },
               "daysSupply": {
                  "value": 30,
                  "unit": "days",
                  "system": "http://unitsofmeasure.org",
                  "code": "d"
               },
               "medicationCodeableConcept": {
                  "coding": [
                     {
                        "system": "http://www.nlm.nih.gov/research/umls/rxnorm",
                        "code": "311992",
                        "display": "Nitrofurantoin 100 MG Oral Capsule"
                     }
                  ],
                  "text": "Nitrofurantoin 100 MG Oral Capsule"
               },
               "whenHandedOver": "2006-10-31"
            },
            "search": {
               "mode": "match"
            }
         },
         {
            "fullUrl": "http://165.227.51.4:9002/baseDstu2/MedicationOrder/smart-medicationorder-131",
            "resource": {
               "resourceType": "MedicationOrder",
               "id": "smart-medicationorder-131",
               "meta": {
                  "versionId": "1",
                  "lastUpdated": "2019-08-23T22:11:57.615+00:00",
                  "security": [
                     {
                        "system": "http://smarthealthit.org/security/categories",
                        "code": "medications"
                     },
                     {
                        "system": "http://smarthealthit.org/security/users",
                        "code": "Patient/smart-1157764"
                     }
                  ]
               },
               "text": {
                  "status": "generated",
                  "div": "<div xmlns=\"http://www.w3.org/1999/xhtml\">      bimatoprost 0.3 MG/ML Ophthalmic Solution [Lumigan] (rxnorm: 285128)    </div>"
               },
               "status": "active",
               "patient": {
                  "reference": "Patient/smart-1157764"
               },
               "medicationCodeableConcept": {
                  "coding": [
                     {
                        "system": "http://www.nlm.nih.gov/research/umls/rxnorm",
                        "code": "285128",
                        "display": "bimatoprost 0.3 MG/ML Ophthalmic Solution [Lumigan]"
                     }
                  ],
                  "text": "bimatoprost 0.3 MG/ML Ophthalmic Solution [Lumigan]"
               },
               "dosageInstruction": [
                  {
                     "text": "1 gtt daily in OD",
                     "timing": {
                        "repeat": {
                           "boundsPeriod": {
                              "start": "2009-08-22"
                           },
                           "frequency": 1,
                           "period": 1,
                           "periodUnits": "d"
                        }
                     },
                     "doseQuantity": {
                        "value": 1,
                        "unit": "[drp]",
                        "system": "http://unitsofmeasure.org",
                        "code": "[drp]"
                     }
                  }
               ],
               "dispenseRequest": {
                  "numberOfRepeatsAllowed": 1,
                  "quantity": {
                     "value": 2,
                     "unit": "[drp]",
                     "system": "http://unitsofmeasure.org",
                     "code": "[drp]"
                  },
                  "expectedSupplyDuration": {
                     "value": 20,
                     "unit": "days",
                     "system": "http://unitsofmeasure.org",
                     "code": "d"
                  }
               }
            },
            "search": {
               "mode": "include"
            }
         },
         {
            "fullUrl": "http://165.227.51.4:9002/baseDstu2/MedicationDispense/smart-medicationdispense-937",
            "resource": {
               "resourceType": "MedicationDispense",
               "id": "smart-medicationdispense-937",
               "meta": {
                  "versionId": "1",
                  "lastUpdated": "2019-08-23T22:11:57.615+00:00",
                  "security": [
                     {
                        "system": "http://smarthealthit.org/security/users",
                        "code": "Patient/smart-1157764"
                     },
                     {
                        "system": "http://smarthealthit.org/security/categories",
                        "code": "medications"
                     }
                  ]
               },
               "text": {
                  "fhir_comments": [
                     "  insert contents here  "
                  ],
                  "status": "generated",
                  "div": "<div xmlns=\"http://www.w3.org/1999/xhtml\">      Dispensed 2 tablets = 20 day supply of bimatoprost 0.3 MG/ML Ophthalmic Solution [Lumigan]    </div>"
               },
               "status": "completed",
               "patient": {
                  "reference": "Patient/smart-1157764"
               },
               "authorizingPrescription": [
                  {
                     "reference": "MedicationOrder/smart-medicationorder-131"
                  }
               ],
               "quantity": {
                  "value": 2,
                  "unit": "tablets",
                  "system": "http://unitsofmeasure.org",
                  "code": "{tablets}"
               },
               "daysSupply": {
                  "value": 20,
                  "unit": "days",
                  "system": "http://unitsofmeasure.org",
                  "code": "d"
               },
               "medicationCodeableConcept": {
                  "coding": [
                     {
                        "system": "http://www.nlm.nih.gov/research/umls/rxnorm",
                        "code": "285128",
                        "display": "bimatoprost 0.3 MG/ML Ophthalmic Solution [Lumigan]"
                     }
                  ],
                  "text": "bimatoprost 0.3 MG/ML Ophthalmic Solution [Lumigan]"
               },
               "whenHandedOver": "2009-08-22"
            },
            "search": {
               "mode": "match"
            }
         },
         {
            "fullUrl": "http://165.227.51.4:9002/baseDstu2/Condition/smart-condition-379",
            "resource": {
               "resourceType": "Condition",
               "id": "smart-condition-379",
               "meta": {
                  "versionId": "1",
                  "lastUpdated": "2019-08-23T22:11:57.615+00:00",
                  "security": [
                     {
                        "system": "http://smarthealthit.org/security/categories",
                        "code": "problems"
                     },
                     {
                        "system": "http://smarthealthit.org/security/users",
                        "code": "Patient/smart-1157764"
                     }
                  ]
               },
               "text": {
                  "status": "generated",
                  "div": "<div xmlns=\"http://www.w3.org/1999/xhtml\">Primary malignant neoplasm of female breast</div>"
               },
               "patient": {
                  "reference": "Patient/smart-1157764"
               },
               "code": {
                  "coding": [
                     {
                        "system": "http://snomed.info/sct",
                        "code": "254837009",
                        "display": "Primary malignant neoplasm of female breast"
                     }
                  ],
                  "text": "Primary malignant neoplasm of female breast"
               },
               "clinicalStatus": "active",
               "verificationStatus": "confirmed",
               "onsetDateTime": "2003-12-16"
            },
            "search": {
               "mode": "match"
            }
         },
         {
            "fullUrl": "http://165.227.51.4:9002/baseDstu2/Condition/smart-condition-380",
            "resource": {
               "resourceType": "Condition",
               "id": "smart-condition-380",
               "meta": {
                  "versionId": "1",
                  "lastUpdated": "2019-08-23T22:11:57.615+00:00",
                  "security": [
                     {
                        "system": "http://smarthealthit.org/security/categories",
                        "code": "problems"
                     },
                     {
                        "system": "http://smarthealthit.org/security/users",
                        "code": "Patient/smart-1157764"
                     }
                  ]
               },
               "text": {
                  "status": "generated",
                  "div": "<div xmlns=\"http://www.w3.org/1999/xhtml\">Adjustment disorder</div>"
               },
               "patient": {
                  "reference": "Patient/smart-1157764"
               },
               "code": {
                  "coding": [
                     {
                        "system": "http://snomed.info/sct",
                        "code": "17226007",
                        "display": "Adjustment disorder"
                     }
                  ],
                  "text": "Adjustment disorder"
               },
               "clinicalStatus": "active",
               "verificationStatus": "confirmed",
               "onsetDateTime": "2005-09-14"
            },
            "search": {
               "mode": "match"
            }
         }
      ]
   }
