{
      "resourceType": "Bundle",
      "id": "64d14de6-8551-477a-b2b7-ca5c1fdf05b5",
      "meta": {
         "lastUpdated": "2020-07-25T02:02:31.971+00:00"
      },
      "type": "searchset",
      "total": 88,
      "link": [
         {
            "relation": "self",
            "url": "http://165.227.51.4:9002/baseDstu2/Patient/smart-1134281/$everything?_count=50"
         }
      ],
      "entry": [
         {
            "fullUrl": "http://165.227.51.4:9002/baseDstu2/Observation/smart-observation-1736-lab",
            "resource": {
               "resourceType": "Observation",
               "id": "smart-observation-1736-lab",
               "meta": {
                  "versionId": "1",
                  "lastUpdated": "2019-08-23T22:11:49.351+00:00",
                  "security": [
                     {
                        "system": "http://smarthealthit.org/security/categories",
                        "code": "laboratory"
                     },
                     {
                        "system": "http://smarthealthit.org/security/users",
                        "code": "Patient/smart-1134281"
                     }
                  ]
               },
               "text": {
                  "status": "generated",
                  "div": "<div xmlns=\"http://www.w3.org/1999/xhtml\">2005-07-05: Schistocytes Bld Ql Smear = None </div>"
               },
               "extension": [
                  {
                     "url": "http://fhir-registry.smarthealthit.org/StructureDefinition/labs#value-range",
                     "valueString": "['None', 'Few', 'Many']"
                  }
               ],
               "status": "final",
               "category": {
                  "coding": [
                     {
                        "system": "http://hl7.org/fhir/observation-category",
                        "code": "laboratory",
                        "display": "Laboratory"
                     }
                  ],
                  "text": "Laboratory"
               },
               "code": {
                  "coding": [
                     {
                        "system": "http://loinc.org",
                        "code": "800-3",
                        "display": "Schistocytes Bld Ql Smear"
                     }
                  ],
                  "text": "Schistocytes Bld Ql Smear"
               },
               "subject": {
                  "reference": "Patient/smart-1134281"
               },
               "effectiveDateTime": "2005-07-05",
               "valueString": "None"
            },
            "search": {
               "mode": "match"
            }
         },
         {
            "fullUrl": "http://165.227.51.4:9002/baseDstu2/Observation/smart-observation-1737-lab",
            "resource": {
               "resourceType": "Observation",
               "id": "smart-observation-1737-lab",
               "meta": {
                  "versionId": "1",
                  "lastUpdated": "2019-08-23T22:11:49.351+00:00",
                  "security": [
                     {
                        "system": "http://smarthealthit.org/security/categories",
                        "code": "laboratory"
                     },
                     {
                        "system": "http://smarthealthit.org/security/users",
                        "code": "Patient/smart-1134281"
                     }
                  ]
               },
               "text": {
                  "status": "generated",
                  "div": "<div xmlns=\"http://www.w3.org/1999/xhtml\">2005-07-05: Variant Lymphs NFr Bld Manual = 3 %</div>"
               },
               "status": "final",
               "category": {
                  "coding": [
                     {
                        "system": "http://hl7.org/fhir/observation-category",
                        "code": "laboratory",
                        "display": "Laboratory"
                     }
                  ],
                  "text": "Laboratory"
               },
               "code": {
                  "coding": [
                     {
                        "system": "http://loinc.org",
                        "code": "735-1",
                        "display": "Variant Lymphs NFr Bld Manual"
                     }
                  ],
                  "text": "Variant Lymphs NFr Bld Manual"
               },
               "subject": {
                  "reference": "Patient/smart-1134281"
               },
               "effectiveDateTime": "2005-07-05",
               "valueQuantity": {
                  "value": 3,
                  "unit": "%",
                  "system": "http://unitsofmeasure.org"
               },
               "referenceRange": [
                  {
                     "low": {
                        "value": 0,
                        "unit": "%",
                        "system": "http://unitsofmeasure.org",
                        "code": "%"
                     },
                     "high": {
                        "value": 0,
                        "unit": "%",
                        "system": "http://unitsofmeasure.org",
                        "code": "%"
                     },
                     "meaning": {
                        "coding": [
                           {
                              "system": "http://hl7.org/fhir/referencerange-meaning",
                              "code": "normal",
                              "display": "Normal Range"
                           }
                        ],
                        "text": "Normal Range"
                     }
                  }
               ]
            },
            "search": {
               "mode": "match"
            }
         },
         {
            "fullUrl": "http://165.227.51.4:9002/baseDstu2/Observation/smart-observation-1738-lab",
            "resource": {
               "resourceType": "Observation",
               "id": "smart-observation-1738-lab",
               "meta": {
                  "versionId": "1",
                  "lastUpdated": "2019-08-23T22:11:49.351+00:00",
                  "security": [
                     {
                        "system": "http://smarthealthit.org/security/users",
                        "code": "Patient/smart-1134281"
                     },
                     {
                        "system": "http://smarthealthit.org/security/categories",
                        "code": "laboratory"
                     }
                  ]
               },
               "text": {
                  "status": "generated",
                  "div": "<div xmlns=\"http://www.w3.org/1999/xhtml\">2005-07-06: Bilirub SerPl-mCnc = 10.2 mg/dL</div>"
               },
               "status": "final",
               "category": {
                  "coding": [
                     {
                        "system": "http://hl7.org/fhir/observation-category",
                        "code": "laboratory",
                        "display": "Laboratory"
                     }
                  ],
                  "text": "Laboratory"
               },
               "code": {
                  "coding": [
                     {
                        "system": "http://loinc.org",
                        "code": "1975-2",
                        "display": "Bilirub SerPl-mCnc"
                     }
                  ],
                  "text": "Bilirub SerPl-mCnc"
               },
               "subject": {
                  "reference": "Patient/smart-1134281"
               },
               "effectiveDateTime": "2005-07-06",
               "valueQuantity": {
                  "value": 10.2,
                  "unit": "mg/dL",
                  "system": "http://unitsofmeasure.org"
               },
               "referenceRange": [
                  {
                     "low": {
                        "value": 2,
                        "unit": "mg/dL",
                        "system": "http://unitsofmeasure.org",
                        "code": "mg/dL"
                     },
                     "high": {
                        "value": 7,
                        "unit": "mg/dL",
                        "system": "http://unitsofmeasure.org",
                        "code": "mg/dL"
                     },
                     "meaning": {
                        "coding": [
                           {
                              "system": "http://hl7.org/fhir/referencerange-meaning",
                              "code": "normal",
                              "display": "Normal Range"
                           }
                        ],
                        "text": "Normal Range"
                     }
                  }
               ]
            },
            "search": {
               "mode": "match"
            }
         },
         {
            "fullUrl": "http://165.227.51.4:9002/baseDstu2/Observation/smart-observation-1739-lab",
            "resource": {
               "resourceType": "Observation",
               "id": "smart-observation-1739-lab",
               "meta": {
                  "versionId": "1",
                  "lastUpdated": "2019-08-23T22:11:49.351+00:00",
                  "security": [
                     {
                        "system": "http://smarthealthit.org/security/users",
                        "code": "Patient/smart-1134281"
                     },
                     {
                        "system": "http://smarthealthit.org/security/categories",
                        "code": "laboratory"
                     }
                  ]
               },
               "text": {
                  "status": "generated",
                  "div": "<div xmlns=\"http://www.w3.org/1999/xhtml\">2005-07-06: Bilirub SerPl-mCnc = 10.1 mg/dL</div>"
               },
               "status": "final",
               "category": {
                  "coding": [
                     {
                        "system": "http://hl7.org/fhir/observation-category",
                        "code": "laboratory",
                        "display": "Laboratory"
                     }
                  ],
                  "text": "Laboratory"
               },
               "code": {
                  "coding": [
                     {
                        "system": "http://loinc.org",
                        "code": "1975-2",
                        "display": "Bilirub SerPl-mCnc"
                     }
                  ],
                  "text": "Bilirub SerPl-mCnc"
               },
               "subject": {
                  "reference": "Patient/smart-1134281"
               },
               "effectiveDateTime": "2005-07-06",
               "valueQuantity": {
                  "value": 10.1,
                  "unit": "mg/dL",
                  "system": "http://unitsofmeasure.org"
               },
               "referenceRange": [
                  {
                     "low": {
                        "value": 2,
                        "unit": "mg/dL",
                        "system": "http://unitsofmeasure.org",
                        "code": "mg/dL"
                     },
                     "high": {
                        "value": 7,
                        "unit": "mg/dL",
                        "system": "http://unitsofmeasure.org",
                        "code": "mg/dL"
                     },
                     "meaning": {
                        "coding": [
                           {
                              "system": "http://hl7.org/fhir/referencerange-meaning",
                              "code": "normal",
                              "display": "Normal Range"
                           }
                        ],
                        "text": "Normal Range"
                     }
                  }
               ]
            },
            "search": {
               "mode": "match"
            }
         },
         {
            "fullUrl": "http://165.227.51.4:9002/baseDstu2/Observation/smart-observation-1740-lab",
            "resource": {
               "resourceType": "Observation",
               "id": "smart-observation-1740-lab",
               "meta": {
                  "versionId": "1",
                  "lastUpdated": "2019-08-23T22:11:49.351+00:00",
                  "security": [
                     {
                        "system": "http://smarthealthit.org/security/categories",
                        "code": "laboratory"
                     },
                     {
                        "system": "http://smarthealthit.org/security/users",
                        "code": "Patient/smart-1134281"
                     }
                  ]
               },
               "text": {
                  "status": "generated",
                  "div": "<div xmlns=\"http://www.w3.org/1999/xhtml\">2005-07-06: Glucose Bld-mCnc = 60 mg/dL</div>"
               },
               "status": "final",
               "category": {
                  "coding": [
                     {
                        "system": "http://hl7.org/fhir/observation-category",
                        "code": "laboratory",
                        "display": "Laboratory"
                     }
                  ],
                  "text": "Laboratory"
               },
               "code": {
                  "coding": [
                     {
                        "system": "http://loinc.org",
                        "code": "2339-0",
                        "display": "Glucose Bld-mCnc"
                     }
                  ],
                  "text": "Glucose Bld-mCnc"
               },
               "subject": {
                  "reference": "Patient/smart-1134281"
               },
               "effectiveDateTime": "2005-07-06",
               "valueQuantity": {
                  "value": 60,
                  "unit": "mg/dL",
                  "system": "http://unitsofmeasure.org"
               },
               "referenceRange": [
                  {
                     "low": {
                        "value": 40,
                        "unit": "mg/dL",
                        "system": "http://unitsofmeasure.org",
                        "code": "mg/dL"
                     },
                     "high": {
                        "value": 109,
                        "unit": "mg/dL",
                        "system": "http://unitsofmeasure.org",
                        "code": "mg/dL"
                     },
                     "meaning": {
                        "coding": [
                           {
                              "system": "http://hl7.org/fhir/referencerange-meaning",
                              "code": "normal",
                              "display": "Normal Range"
                           }
                        ],
                        "text": "Normal Range"
                     }
                  }
               ]
            },
            "search": {
               "mode": "match"
            }
         },
         {
            "fullUrl": "http://165.227.51.4:9002/baseDstu2/Observation/smart-observation-1741-lab",
            "resource": {
               "resourceType": "Observation",
               "id": "smart-observation-1741-lab",
               "meta": {
                  "versionId": "1",
                  "lastUpdated": "2019-08-23T22:11:49.351+00:00",
                  "security": [
                     {
                        "system": "http://smarthealthit.org/security/users",
                        "code": "Patient/smart-1134281"
                     },
                     {
                        "system": "http://smarthealthit.org/security/categories",
                        "code": "laboratory"
                     }
                  ]
               },
               "text": {
                  "status": "generated",
                  "div": "<div xmlns=\"http://www.w3.org/1999/xhtml\">2005-07-06: Glucose Bld-mCnc = 93 mg/dL</div>"
               },
               "status": "final",
               "category": {
                  "coding": [
                     {
                        "system": "http://hl7.org/fhir/observation-category",
                        "code": "laboratory",
                        "display": "Laboratory"
                     }
                  ],
                  "text": "Laboratory"
               },
               "code": {
                  "coding": [
                     {
                        "system": "http://loinc.org",
                        "code": "2339-0",
                        "display": "Glucose Bld-mCnc"
                     }
                  ],
                  "text": "Glucose Bld-mCnc"
               },
               "subject": {
                  "reference": "Patient/smart-1134281"
               },
               "effectiveDateTime": "2005-07-06",
               "valueQuantity": {
                  "value": 93,
                  "unit": "mg/dL",
                  "system": "http://unitsofmeasure.org"
               },
               "referenceRange": [
                  {
                     "low": {
                        "value": 40,
                        "unit": "mg/dL",
                        "system": "http://unitsofmeasure.org",
                        "code": "mg/dL"
                     },
                     "high": {
                        "value": 109,
                        "unit": "mg/dL",
                        "system": "http://unitsofmeasure.org",
                        "code": "mg/dL"
                     },
                     "meaning": {
                        "coding": [
                           {
                              "system": "http://hl7.org/fhir/referencerange-meaning",
                              "code": "normal",
                              "display": "Normal Range"
                           }
                        ],
                        "text": "Normal Range"
                     }
                  }
               ]
            },
            "search": {
               "mode": "match"
            }
         },
         {
            "fullUrl": "http://165.227.51.4:9002/baseDstu2/Observation/smart-observation-1742-lab",
            "resource": {
               "resourceType": "Observation",
               "id": "smart-observation-1742-lab",
               "meta": {
                  "versionId": "1",
                  "lastUpdated": "2019-08-23T22:11:49.351+00:00",
                  "security": [
                     {
                        "system": "http://smarthealthit.org/security/users",
                        "code": "Patient/smart-1134281"
                     },
                     {
                        "system": "http://smarthealthit.org/security/categories",
                        "code": "laboratory"
                     }
                  ]
               },
               "text": {
                  "status": "generated",
                  "div": "<div xmlns=\"http://www.w3.org/1999/xhtml\">2005-07-07: Biotinidase DBS Ql = Normal </div>"
               },
               "extension": [
                  {
                     "url": "http://fhir-registry.smarthealthit.org/StructureDefinition/labs#value-range",
                     "valueString": "['Normal', 'Abnormal']"
                  }
               ],
               "status": "final",
               "category": {
                  "coding": [
                     {
                        "system": "http://hl7.org/fhir/observation-category",
                        "code": "laboratory",
                        "display": "Laboratory"
                     }
                  ],
                  "text": "Laboratory"
               },
               "code": {
                  "coding": [
                     {
                        "system": "http://loinc.org",
                        "code": "38478-4",
                        "display": "Biotinidase DBS Ql"
                     }
                  ],
                  "text": "Biotinidase DBS Ql"
               },
               "subject": {
                  "reference": "Patient/smart-1134281"
               },
               "effectiveDateTime": "2005-07-07",
               "valueString": "Normal"
            },
            "search": {
               "mode": "match"
            }
         },
         {
            "fullUrl": "http://165.227.51.4:9002/baseDstu2/Observation/smart-observation-1743-lab",
            "resource": {
               "resourceType": "Observation",
               "id": "smart-observation-1743-lab",
               "meta": {
                  "versionId": "1",
                  "lastUpdated": "2019-08-23T22:11:49.351+00:00",
                  "security": [
                     {
                        "system": "http://smarthealthit.org/security/categories",
                        "code": "laboratory"
                     },
                     {
                        "system": "http://smarthealthit.org/security/users",
                        "code": "Patient/smart-1134281"
                     }
                  ]
               },
               "text": {
                  "status": "generated",
                  "div": "<div xmlns=\"http://www.w3.org/1999/xhtml\">2005-07-07: Phe DBS Ql = Normal </div>"
               },
               "extension": [
                  {
                     "url": "http://fhir-registry.smarthealthit.org/StructureDefinition/labs#value-range",
                     "valueString": "['Normal', 'Abnormal']"
                  }
               ],
               "status": "final",
               "category": {
                  "coding": [
                     {
                        "system": "http://hl7.org/fhir/observation-category",
                        "code": "laboratory",
                        "display": "Laboratory"
                     }
                  ],
                  "text": "Laboratory"
               },
               "code": {
                  "coding": [
                     {
                        "system": "http://loinc.org",
                        "code": "29571-7",
                        "display": "Phe DBS Ql"
                     }
                  ],
                  "text": "Phe DBS Ql"
               },
               "subject": {
                  "reference": "Patient/smart-1134281"
               },
               "effectiveDateTime": "2005-07-07",
               "valueString": "Normal"
            },
            "search": {
               "mode": "match"
            }
         },
         {
            "fullUrl": "http://165.227.51.4:9002/baseDstu2/Observation/smart-observation-1744-lab",
            "resource": {
               "resourceType": "Observation",
               "id": "smart-observation-1744-lab",
               "meta": {
                  "versionId": "1",
                  "lastUpdated": "2019-08-23T22:11:49.351+00:00",
                  "security": [
                     {
                        "system": "http://smarthealthit.org/security/users",
                        "code": "Patient/smart-1134281"
                     },
                     {
                        "system": "http://smarthealthit.org/security/categories",
                        "code": "laboratory"
                     }
                  ]
               },
               "text": {
                  "status": "generated",
                  "div": "<div xmlns=\"http://www.w3.org/1999/xhtml\">2005-07-07: Bilirub SerPl-mCnc = 8.6 mg/dL</div>"
               },
               "status": "final",
               "category": {
                  "coding": [
                     {
                        "system": "http://hl7.org/fhir/observation-category",
                        "code": "laboratory",
                        "display": "Laboratory"
                     }
                  ],
                  "text": "Laboratory"
               },
               "code": {
                  "coding": [
                     {
                        "system": "http://loinc.org",
                        "code": "1975-2",
                        "display": "Bilirub SerPl-mCnc"
                     }
                  ],
                  "text": "Bilirub SerPl-mCnc"
               },
               "subject": {
                  "reference": "Patient/smart-1134281"
               },
               "effectiveDateTime": "2005-07-07",
               "valueQuantity": {
                  "value": 8.6,
                  "unit": "mg/dL",
                  "system": "http://unitsofmeasure.org"
               },
               "referenceRange": [
                  {
                     "low": {
                        "value": 2,
                        "unit": "mg/dL",
                        "system": "http://unitsofmeasure.org",
                        "code": "mg/dL"
                     },
                     "high": {
                        "value": 7,
                        "unit": "mg/dL",
                        "system": "http://unitsofmeasure.org",
                        "code": "mg/dL"
                     },
                     "meaning": {
                        "coding": [
                           {
                              "system": "http://hl7.org/fhir/referencerange-meaning",
                              "code": "normal",
                              "display": "Normal Range"
                           }
                        ],
                        "text": "Normal Range"
                     }
                  }
               ]
            },
            "search": {
               "mode": "match"
            }
         },
         {
            "fullUrl": "http://165.227.51.4:9002/baseDstu2/Observation/smart-observation-1745-lab",
            "resource": {
               "resourceType": "Observation",
               "id": "smart-observation-1745-lab",
               "meta": {
                  "versionId": "1",
                  "lastUpdated": "2019-08-23T22:11:49.351+00:00",
                  "security": [
                     {
                        "system": "http://smarthealthit.org/security/users",
                        "code": "Patient/smart-1134281"
                     },
                     {
                        "system": "http://smarthealthit.org/security/categories",
                        "code": "laboratory"
                     }
                  ]
               },
               "text": {
                  "status": "generated",
                  "div": "<div xmlns=\"http://www.w3.org/1999/xhtml\">2005-07-07: Bilirub SerPl-mCnc = 8.3 mg/dL</div>"
               },
               "status": "final",
               "category": {
                  "coding": [
                     {
                        "system": "http://hl7.org/fhir/observation-category",
                        "code": "laboratory",
                        "display": "Laboratory"
                     }
                  ],
                  "text": "Laboratory"
               },
               "code": {
                  "coding": [
                     {
                        "system": "http://loinc.org",
                        "code": "1975-2",
                        "display": "Bilirub SerPl-mCnc"
                     }
                  ],
                  "text": "Bilirub SerPl-mCnc"
               },
               "subject": {
                  "reference": "Patient/smart-1134281"
               },
               "effectiveDateTime": "2005-07-07",
               "valueQuantity": {
                  "value": 8.3,
                  "unit": "mg/dL",
                  "system": "http://unitsofmeasure.org"
               },
               "referenceRange": [
                  {
                     "low": {
                        "value": 2,
                        "unit": "mg/dL",
                        "system": "http://unitsofmeasure.org",
                        "code": "mg/dL"
                     },
                     "high": {
                        "value": 7,
                        "unit": "mg/dL",
                        "system": "http://unitsofmeasure.org",
                        "code": "mg/dL"
                     },
                     "meaning": {
                        "coding": [
                           {
                              "system": "http://hl7.org/fhir/referencerange-meaning",
                              "code": "normal",
                              "display": "Normal Range"
                           }
                        ],
                        "text": "Normal Range"
                     }
                  }
               ]
            },
            "search": {
               "mode": "match"
            }
         },
         {
            "fullUrl": "http://165.227.51.4:9002/baseDstu2/Observation/smart-observation-1746-lab",
            "resource": {
               "resourceType": "Observation",
               "id": "smart-observation-1746-lab",
               "meta": {
                  "versionId": "1",
                  "lastUpdated": "2019-08-23T22:11:49.351+00:00",
                  "security": [
                     {
                        "system": "http://smarthealthit.org/security/categories",
                        "code": "laboratory"
                     },
                     {
                        "system": "http://smarthealthit.org/security/users",
                        "code": "Patient/smart-1134281"
                     }
                  ]
               },
               "text": {
                  "status": "generated",
                  "div": "<div xmlns=\"http://www.w3.org/1999/xhtml\">2005-07-08: Bilirub SerPl-mCnc = 11.3 mg/dL</div>"
               },
               "status": "final",
               "category": {
                  "coding": [
                     {
                        "system": "http://hl7.org/fhir/observation-category",
                        "code": "laboratory",
                        "display": "Laboratory"
                     }
                  ],
                  "text": "Laboratory"
               },
               "code": {
                  "coding": [
                     {
                        "system": "http://loinc.org",
                        "code": "1975-2",
                        "display": "Bilirub SerPl-mCnc"
                     }
                  ],
                  "text": "Bilirub SerPl-mCnc"
               },
               "subject": {
                  "reference": "Patient/smart-1134281"
               },
               "effectiveDateTime": "2005-07-08",
               "valueQuantity": {
                  "value": 11.3,
                  "unit": "mg/dL",
                  "system": "http://unitsofmeasure.org"
               },
               "referenceRange": [
                  {
                     "low": {
                        "value": 2,
                        "unit": "mg/dL",
                        "system": "http://unitsofmeasure.org",
                        "code": "mg/dL"
                     },
                     "high": {
                        "value": 6,
                        "unit": "mg/dL",
                        "system": "http://unitsofmeasure.org",
                        "code": "mg/dL"
                     },
                     "meaning": {
                        "coding": [
                           {
                              "system": "http://hl7.org/fhir/referencerange-meaning",
                              "code": "normal",
                              "display": "Normal Range"
                           }
                        ],
                        "text": "Normal Range"
                     }
                  }
               ]
            },
            "search": {
               "mode": "match"
            }
         },
         {
            "fullUrl": "http://165.227.51.4:9002/baseDstu2/Observation/smart-observation-1747-lab",
            "resource": {
               "resourceType": "Observation",
               "id": "smart-observation-1747-lab",
               "meta": {
                  "versionId": "1",
                  "lastUpdated": "2019-08-23T22:11:49.351+00:00",
                  "security": [
                     {
                        "system": "http://smarthealthit.org/security/users",
                        "code": "Patient/smart-1134281"
                     },
                     {
                        "system": "http://smarthealthit.org/security/categories",
                        "code": "laboratory"
                     }
                  ]
               },
               "text": {
                  "status": "generated",
                  "div": "<div xmlns=\"http://www.w3.org/1999/xhtml\">2005-07-08: Bilirub SerPl-mCnc = 11 mg/dL</div>"
               },
               "status": "final",
               "category": {
                  "coding": [
                     {
                        "system": "http://hl7.org/fhir/observation-category",
                        "code": "laboratory",
                        "display": "Laboratory"
                     }
                  ],
                  "text": "Laboratory"
               },
               "code": {
                  "coding": [
                     {
                        "system": "http://loinc.org",
                        "code": "1975-2",
                        "display": "Bilirub SerPl-mCnc"
                     }
                  ],
                  "text": "Bilirub SerPl-mCnc"
               },
               "subject": {
                  "reference": "Patient/smart-1134281"
               },
               "effectiveDateTime": "2005-07-08",
               "valueQuantity": {
                  "value": 11,
                  "unit": "mg/dL",
                  "system": "http://unitsofmeasure.org"
               },
               "referenceRange": [
                  {
                     "low": {
                        "value": 2,
                        "unit": "mg/dL",
                        "system": "http://unitsofmeasure.org",
                        "code": "mg/dL"
                     },
                     "high": {
                        "value": 6,
                        "unit": "mg/dL",
                        "system": "http://unitsofmeasure.org",
                        "code": "mg/dL"
                     },
                     "meaning": {
                        "coding": [
                           {
                              "system": "http://hl7.org/fhir/referencerange-meaning",
                              "code": "normal",
                              "display": "Normal Range"
                           }
                        ],
                        "text": "Normal Range"
                     }
                  }
               ]
            },
            "search": {
               "mode": "match"
            }
         },
         {
            "fullUrl": "http://165.227.51.4:9002/baseDstu2/Observation/smart-observation-1748-lab",
            "resource": {
               "resourceType": "Observation",
               "id": "smart-observation-1748-lab",
               "meta": {
                  "versionId": "1",
                  "lastUpdated": "2019-08-23T22:11:49.351+00:00",
                  "security": [
                     {
                        "system": "http://smarthealthit.org/security/users",
                        "code": "Patient/smart-1134281"
                     },
                     {
                        "system": "http://smarthealthit.org/security/categories",
                        "code": "laboratory"
                     }
                  ]
               },
               "text": {
                  "status": "generated",
                  "div": "<div xmlns=\"http://www.w3.org/1999/xhtml\">2005-07-10: Bilirub SerPl-mCnc = 10.5 mg/dL</div>"
               },
               "status": "final",
               "category": {
                  "coding": [
                     {
                        "system": "http://hl7.org/fhir/observation-category",
                        "code": "laboratory",
                        "display": "Laboratory"
                     }
                  ],
                  "text": "Laboratory"
               },
               "code": {
                  "coding": [
                     {
                        "system": "http://loinc.org",
                        "code": "1975-2",
                        "display": "Bilirub SerPl-mCnc"
                     }
                  ],
                  "text": "Bilirub SerPl-mCnc"
               },
               "subject": {
                  "reference": "Patient/smart-1134281"
               },
               "effectiveDateTime": "2005-07-10",
               "valueQuantity": {
                  "value": 10.5,
                  "unit": "mg/dL",
                  "system": "http://unitsofmeasure.org"
               },
               "referenceRange": [
                  {
                     "low": {
                        "value": 2,
                        "unit": "mg/dL",
                        "system": "http://unitsofmeasure.org",
                        "code": "mg/dL"
                     },
                     "high": {
                        "value": 6,
                        "unit": "mg/dL",
                        "system": "http://unitsofmeasure.org",
                        "code": "mg/dL"
                     },
                     "meaning": {
                        "coding": [
                           {
                              "system": "http://hl7.org/fhir/referencerange-meaning",
                              "code": "normal",
                              "display": "Normal Range"
                           }
                        ],
                        "text": "Normal Range"
                     }
                  }
               ]
            },
            "search": {
               "mode": "match"
            }
         },
         {
            "fullUrl": "http://165.227.51.4:9002/baseDstu2/MedicationOrder/smart-medicationorder-114",
            "resource": {
               "resourceType": "MedicationOrder",
               "id": "smart-medicationorder-114",
               "meta": {
                  "versionId": "1",
                  "lastUpdated": "2019-08-23T22:11:49.351+00:00",
                  "security": [
                     {
                        "system": "http://smarthealthit.org/security/categories",
                        "code": "medications"
                     },
                     {
                        "system": "http://smarthealthit.org/security/users",
                        "code": "Patient/smart-1134281"
                     }
                  ]
               },
               "text": {
                  "status": "generated",
                  "div": "<div xmlns=\"http://www.w3.org/1999/xhtml\">      Amoxicillin 50 MG/ML Oral Suspension (rxnorm: 239191)    </div>"
               },
               "status": "active",
               "patient": {
                  "reference": "Patient/smart-1134281"
               },
               "medicationCodeableConcept": {
                  "coding": [
                     {
                        "system": "http://www.nlm.nih.gov/research/umls/rxnorm",
                        "code": "239191",
                        "display": "Amoxicillin 50 MG/ML Oral Suspension"
                     }
                  ],
                  "text": "Amoxicillin 50 MG/ML Oral Suspension"
               },
               "dosageInstruction": [
                  {
                     "text": "10 mL bid x 10 days",
                     "timing": {
                        "repeat": {
                           "boundsPeriod": {
                              "start": "2005-11-28"
                           },
                           "frequency": 2,
                           "period": 1,
                           "periodUnits": "d"
                        }
                     },
                     "doseQuantity": {
                        "value": 10,
                        "unit": "mL",
                        "system": "http://unitsofmeasure.org",
                        "code": "mL"
                     }
                  }
               ],
               "dispenseRequest": {
                  "numberOfRepeatsAllowed": 1,
                  "quantity": {
                     "value": 1,
                     "unit": "mL",
                     "system": "http://unitsofmeasure.org",
                     "code": "mL"
                  },
                  "expectedSupplyDuration": {
                     "value": 10,
                     "unit": "days",
                     "system": "http://unitsofmeasure.org",
                     "code": "d"
                  }
               }
            },
            "search": {
               "mode": "match"
            }
         },
         {
            "fullUrl": "http://165.227.51.4:9002/baseDstu2/MedicationOrder/smart-medicationorder-115",
            "resource": {
               "resourceType": "MedicationOrder",
               "id": "smart-medicationorder-115",
               "meta": {
                  "versionId": "1",
                  "lastUpdated": "2019-08-23T22:11:49.351+00:00",
                  "security": [
                     {
                        "system": "http://smarthealthit.org/security/users",
                        "code": "Patient/smart-1134281"
                     },
                     {
                        "system": "http://smarthealthit.org/security/categories",
                        "code": "medications"
                     }
                  ]
               },
               "text": {
                  "status": "generated",
                  "div": "<div xmlns=\"http://www.w3.org/1999/xhtml\">      carbinoxamine 1 MG/ML / Dextromethorphan 4 MG/ML / Pseudoephedrine 15 MG/ML Oral Solution [Carbofed DM Drops] (rxnorm: 352027)    </div>"
               },
               "status": "active",
               "patient": {
                  "reference": "Patient/smart-1134281"
               },
               "medicationCodeableConcept": {
                  "coding": [
                     {
                        "system": "http://www.nlm.nih.gov/research/umls/rxnorm",
                        "code": "352027",
                        "display": "carbinoxamine 1 MG/ML / Dextromethorphan 4 MG/ML / Pseudoephedrine 15 MG/ML Oral Solution [Carbofed DM Drops]"
                     }
                  ],
                  "text": "carbinoxamine 1 MG/ML / Dextromethorphan 4 MG/ML / Pseudoephedrine 15 MG/ML Oral Solution [Carbofed DM Drops]"
               },
               "dispenseRequest": {
                  "numberOfRepeatsAllowed": 1,
                  "quantity": {
                     "value": 1,
                     "system": "http://unitsofmeasure.org"
                  },
                  "expectedSupplyDuration": {
                     "value": 0,
                     "unit": "days",
                     "system": "http://unitsofmeasure.org",
                     "code": "d"
                  }
               }
            },
            "search": {
               "mode": "match"
            }
         },
         {
            "fullUrl": "http://165.227.51.4:9002/baseDstu2/MedicationOrder/smart-medicationorder-116",
            "resource": {
               "resourceType": "MedicationOrder",
               "id": "smart-medicationorder-116",
               "meta": {
                  "versionId": "1",
                  "lastUpdated": "2019-08-23T22:11:49.351+00:00",
                  "security": [
                     {
                        "system": "http://smarthealthit.org/security/categories",
                        "code": "medications"
                     },
                     {
                        "system": "http://smarthealthit.org/security/users",
                        "code": "Patient/smart-1134281"
                     }
                  ]
               },
               "text": {
                  "status": "generated",
                  "div": "<div xmlns=\"http://www.w3.org/1999/xhtml\">      Metoclopramide 1 MG/ML Oral Solution (rxnorm: 104884)    </div>"
               },
               "status": "active",
               "patient": {
                  "reference": "Patient/smart-1134281"
               },
               "medicationCodeableConcept": {
                  "coding": [
                     {
                        "system": "http://www.nlm.nih.gov/research/umls/rxnorm",
                        "code": "104884",
                        "display": "Metoclopramide 1 MG/ML Oral Solution"
                     }
                  ],
                  "text": "Metoclopramide 1 MG/ML Oral Solution"
               },
               "dosageInstruction": [
                  {
                     "text": "4 mL qid",
                     "timing": {
                        "repeat": {
                           "boundsPeriod": {
                              "start": "2006-01-08"
                           },
                           "frequency": 4,
                           "period": 1,
                           "periodUnits": "d"
                        }
                     },
                     "doseQuantity": {
                        "value": 4,
                        "unit": "mL",
                        "system": "http://unitsofmeasure.org",
                        "code": "mL"
                     }
                  }
               ],
               "dispenseRequest": {
                  "numberOfRepeatsAllowed": 1,
                  "quantity": {
                     "value": 1,
                     "unit": "mL",
                     "system": "http://unitsofmeasure.org",
                     "code": "mL"
                  },
                  "expectedSupplyDuration": {
                     "value": 30,
                     "unit": "days",
                     "system": "http://unitsofmeasure.org",
                     "code": "d"
                  }
               }
            },
            "search": {
               "mode": "match"
            }
         },
         {
            "fullUrl": "http://165.227.51.4:9002/baseDstu2/MedicationOrder/smart-medicationorder-117",
            "resource": {
               "resourceType": "MedicationOrder",
               "id": "smart-medicationorder-117",
               "meta": {
                  "versionId": "1",
                  "lastUpdated": "2019-08-23T22:11:49.351+00:00",
                  "security": [
                     {
                        "system": "http://smarthealthit.org/security/categories",
                        "code": "medications"
                     },
                     {
                        "system": "http://smarthealthit.org/security/users",
                        "code": "Patient/smart-1134281"
                     }
                  ]
               },
               "text": {
                  "status": "generated",
                  "div": "<div xmlns=\"http://www.w3.org/1999/xhtml\">      Ranitidine 15 MG/ML Oral Solution [Zantac] (rxnorm: 755272)    </div>"
               },
               "status": "active",
               "patient": {
                  "reference": "Patient/smart-1134281"
               },
               "medicationCodeableConcept": {
                  "coding": [
                     {
                        "system": "http://www.nlm.nih.gov/research/umls/rxnorm",
                        "code": "755272",
                        "display": "Ranitidine 15 MG/ML Oral Solution [Zantac]"
                     }
                  ],
                  "text": "Ranitidine 15 MG/ML Oral Solution [Zantac]"
               },
               "dosageInstruction": [
                  {
                     "text": "6 mL bid",
                     "timing": {
                        "repeat": {
                           "boundsPeriod": {
                              "start": "2006-01-08"
                           },
                           "frequency": 2,
                           "period": 1,
                           "periodUnits": "d"
                        }
                     },
                     "doseQuantity": {
                        "value": 6,
                        "unit": "mL",
                        "system": "http://unitsofmeasure.org",
                        "code": "mL"
                     }
                  }
               ],
               "dispenseRequest": {
                  "numberOfRepeatsAllowed": 1,
                  "quantity": {
                     "value": 1,
                     "unit": "mL",
                     "system": "http://unitsofmeasure.org",
                     "code": "mL"
                  },
                  "expectedSupplyDuration": {
                     "value": 30,
                     "unit": "days",
                     "system": "http://unitsofmeasure.org",
                     "code": "d"
                  }
               }
            },
            "search": {
               "mode": "match"
            }
         },
         {
            "fullUrl": "http://165.227.51.4:9002/baseDstu2/MedicationOrder/smart-medicationorder-118",
            "resource": {
               "resourceType": "MedicationOrder",
               "id": "smart-medicationorder-118",
               "meta": {
                  "versionId": "1",
                  "lastUpdated": "2019-08-23T22:11:49.351+00:00",
                  "security": [
                     {
                        "system": "http://smarthealthit.org/security/categories",
                        "code": "medications"
                     },
                     {
                        "system": "http://smarthealthit.org/security/users",
                        "code": "Patient/smart-1134281"
                     }
                  ]
               },
               "text": {
                  "status": "generated",
                  "div": "<div xmlns=\"http://www.w3.org/1999/xhtml\">      Amoxicillin 80 MG/ML Oral Suspension (rxnorm: 308189)    </div>"
               },
               "status": "active",
               "patient": {
                  "reference": "Patient/smart-1134281"
               },
               "medicationCodeableConcept": {
                  "coding": [
                     {
                        "system": "http://www.nlm.nih.gov/research/umls/rxnorm",
                        "code": "308189",
                        "display": "Amoxicillin 80 MG/ML Oral Suspension"
                     }
                  ],
                  "text": "Amoxicillin 80 MG/ML Oral Suspension"
               },
               "dosageInstruction": [
                  {
                     "text": "7 mL bid x 10 days",
                     "timing": {
                        "repeat": {
                           "boundsPeriod": {
                              "start": "2006-08-31"
                           },
                           "frequency": 2,
                           "period": 1,
                           "periodUnits": "d"
                        }
                     },
                     "doseQuantity": {
                        "value": 7,
                        "unit": "mL",
                        "system": "http://unitsofmeasure.org",
                        "code": "mL"
                     }
                  }
               ],
               "dispenseRequest": {
                  "numberOfRepeatsAllowed": 1,
                  "quantity": {
                     "value": 1,
                     "unit": "mL",
                     "system": "http://unitsofmeasure.org",
                     "code": "mL"
                  },
                  "expectedSupplyDuration": {
                     "value": 10,
                     "unit": "days",
                     "system": "http://unitsofmeasure.org",
                     "code": "d"
                  }
               }
            },
            "search": {
               "mode": "match"
            }
         },
         {
            "fullUrl": "http://165.227.51.4:9002/baseDstu2/MedicationOrder/smart-medicationorder-119",
            "resource": {
               "resourceType": "MedicationOrder",
               "id": "smart-medicationorder-119",
               "meta": {
                  "versionId": "1",
                  "lastUpdated": "2019-08-23T22:11:49.351+00:00",
                  "security": [
                     {
                        "system": "http://smarthealthit.org/security/categories",
                        "code": "medications"
                     },
                     {
                        "system": "http://smarthealthit.org/security/users",
                        "code": "Patient/smart-1134281"
                     }
                  ]
               },
               "text": {
                  "status": "generated",
                  "div": "<div xmlns=\"http://www.w3.org/1999/xhtml\">      Mupirocin 0.02 MG/MG Topical Ointment (rxnorm: 106346)    </div>"
               },
               "status": "active",
               "patient": {
                  "reference": "Patient/smart-1134281"
               },
               "medicationCodeableConcept": {
                  "coding": [
                     {
                        "system": "http://www.nlm.nih.gov/research/umls/rxnorm",
                        "code": "106346",
                        "display": "Mupirocin 0.02 MG/MG Topical Ointment"
                     }
                  ],
                  "text": "Mupirocin 0.02 MG/MG Topical Ointment"
               },
               "dosageInstruction": [
                  {
                     "text": "apply nasally prn",
                     "asNeededBoolean": true
                  }
               ],
               "dispenseRequest": {
                  "numberOfRepeatsAllowed": 1,
                  "quantity": {
                     "value": 1,
                     "system": "http://unitsofmeasure.org"
                  },
                  "expectedSupplyDuration": {
                     "value": 30,
                     "unit": "days",
                     "system": "http://unitsofmeasure.org",
                     "code": "d"
                  }
               }
            },
            "search": {
               "mode": "include"
            }
         },
         {
            "fullUrl": "http://165.227.51.4:9002/baseDstu2/MedicationDispense/smart-medicationdispense-373",
            "resource": {
               "resourceType": "MedicationDispense",
               "id": "smart-medicationdispense-373",
               "meta": {
                  "versionId": "1",
                  "lastUpdated": "2019-08-23T22:11:49.351+00:00",
                  "security": [
                     {
                        "system": "http://smarthealthit.org/security/categories",
                        "code": "medications"
                     },
                     {
                        "system": "http://smarthealthit.org/security/users",
                        "code": "Patient/smart-1134281"
                     }
                  ]
               },
               "text": {
                  "fhir_comments": [
                     "  insert contents here  "
                  ],
                  "status": "generated",
                  "div": "<div xmlns=\"http://www.w3.org/1999/xhtml\">      Dispensed 22 tablets = 10 day supply of Mupirocin 0.02 MG/MG Topical Ointment    </div>"
               },
               "status": "completed",
               "patient": {
                  "reference": "Patient/smart-1134281"
               },
               "authorizingPrescription": [
                  {
                     "reference": "MedicationOrder/smart-medicationorder-119"
                  }
               ],
               "quantity": {
                  "value": 22,
                  "unit": "tablets",
                  "system": "http://unitsofmeasure.org",
                  "code": "{tablets}"
               },
               "daysSupply": {
                  "value": 10,
                  "unit": "days",
                  "system": "http://unitsofmeasure.org",
                  "code": "d"
               },
               "medicationCodeableConcept": {
                  "coding": [
                     {
                        "system": "http://www.nlm.nih.gov/research/umls/rxnorm",
                        "code": "106346",
                        "display": "Mupirocin 0.02 MG/MG Topical Ointment"
                     }
                  ],
                  "text": "Mupirocin 0.02 MG/MG Topical Ointment"
               },
               "whenHandedOver": "2009-04-06"
            },
            "search": {
               "mode": "match"
            }
         },
         {
            "fullUrl": "http://165.227.51.4:9002/baseDstu2/MedicationOrder/smart-medicationorder-120",
            "resource": {
               "resourceType": "MedicationOrder",
               "id": "smart-medicationorder-120",
               "meta": {
                  "versionId": "1",
                  "lastUpdated": "2019-08-23T22:11:49.351+00:00",
                  "security": [
                     {
                        "system": "http://smarthealthit.org/security/categories",
                        "code": "medications"
                     },
                     {
                        "system": "http://smarthealthit.org/security/users",
                        "code": "Patient/smart-1134281"
                     }
                  ]
               },
               "text": {
                  "status": "generated",
                  "div": "<div xmlns=\"http://www.w3.org/1999/xhtml\">      Amoxicillin 40 MG/ML / Clavulanate 5.7 MG/ML Oral Suspension (rxnorm: 617423)    </div>"
               },
               "status": "active",
               "patient": {
                  "reference": "Patient/smart-1134281"
               },
               "medicationCodeableConcept": {
                  "coding": [
                     {
                        "system": "http://www.nlm.nih.gov/research/umls/rxnorm",
                        "code": "617423",
                        "display": "Amoxicillin 40 MG/ML / Clavulanate 5.7 MG/ML Oral Suspension"
                     }
                  ],
                  "text": "Amoxicillin 40 MG/ML / Clavulanate 5.7 MG/ML Oral Suspension"
               },
               "dosageInstruction": [
                  {
                     "text": "7 mL bid x 10 days",
                     "timing": {
                        "repeat": {
                           "boundsPeriod": {
                              "start": "2009-06-17"
                           },
                           "frequency": 2,
                           "period": 1,
                           "periodUnits": "d"
                        }
                     },
                     "doseQuantity": {
                        "value": 7,
                        "unit": "mL",
                        "system": "http://unitsofmeasure.org",
                        "code": "mL"
                     }
                  }
               ],
               "dispenseRequest": {
                  "numberOfRepeatsAllowed": 1,
                  "quantity": {
                     "value": 1,
                     "unit": "mL",
                     "system": "http://unitsofmeasure.org",
                     "code": "mL"
                  },
                  "expectedSupplyDuration": {
                     "value": 10,
                     "unit": "days",
                     "system": "http://unitsofmeasure.org",
                     "code": "d"
                  }
               }
            },
            "search": {
               "mode": "include"
            }
         },
         {
            "fullUrl": "http://165.227.51.4:9002/baseDstu2/MedicationDispense/smart-medicationdispense-379",
            "resource": {
               "resourceType": "MedicationDispense",
               "id": "smart-medicationdispense-379",
               "meta": {
                  "versionId": "1",
                  "lastUpdated": "2019-08-23T22:11:49.351+00:00",
                  "security": [
                     {
                        "system": "http://smarthealthit.org/security/users",
                        "code": "Patient/smart-1134281"
                     },
                     {
                        "system": "http://smarthealthit.org/security/categories",
                        "code": "medications"
                     }
                  ]
               },
               "text": {
                  "fhir_comments": [
                     "  insert contents here  "
                  ],
                  "status": "generated",
                  "div": "<div xmlns=\"http://www.w3.org/1999/xhtml\">      Dispensed 100 tablets = 10 day supply of Amoxicillin 40 MG/ML / Clavulanate 5.7 MG/ML Oral Suspension    </div>"
               },
               "status": "completed",
               "patient": {
                  "reference": "Patient/smart-1134281"
               },
               "authorizingPrescription": [
                  {
                     "reference": "MedicationOrder/smart-medicationorder-120"
                  }
               ],
               "quantity": {
                  "value": 100,
                  "unit": "tablets",
                  "system": "http://unitsofmeasure.org",
                  "code": "{tablets}"
               },
               "daysSupply": {
                  "value": 10,
                  "unit": "days",
                  "system": "http://unitsofmeasure.org",
                  "code": "d"
               },
               "medicationCodeableConcept": {
                  "coding": [
                     {
                        "system": "http://www.nlm.nih.gov/research/umls/rxnorm",
                        "code": "617423",
                        "display": "Amoxicillin 40 MG/ML / Clavulanate 5.7 MG/ML Oral Suspension"
                     }
                  ],
                  "text": "Amoxicillin 40 MG/ML / Clavulanate 5.7 MG/ML Oral Suspension"
               },
               "whenHandedOver": "2009-06-17"
            },
            "search": {
               "mode": "match"
            }
         },
         {
            "fullUrl": "http://165.227.51.4:9002/baseDstu2/Condition/smart-condition-222",
            "resource": {
               "resourceType": "Condition",
               "id": "smart-condition-222",
               "meta": {
                  "versionId": "1",
                  "lastUpdated": "2019-08-23T22:11:49.351+00:00",
                  "security": [
                     {
                        "system": "http://smarthealthit.org/security/users",
                        "code": "Patient/smart-1134281"
                     },
                     {
                        "system": "http://smarthealthit.org/security/categories",
                        "code": "problems"
                     }
                  ]
               },
               "text": {
                  "status": "generated",
                  "div": "<div xmlns=\"http://www.w3.org/1999/xhtml\">Neonatal jaundice associated with preterm delivery</div>"
               },
               "patient": {
                  "reference": "Patient/smart-1134281"
               },
               "code": {
                  "coding": [
                     {
                        "system": "http://snomed.info/sct",
                        "code": "73749009",
                        "display": "Neonatal jaundice associated with preterm delivery"
                     }
                  ],
                  "text": "Neonatal jaundice associated with preterm delivery"
               },
               "clinicalStatus": "active",
               "verificationStatus": "confirmed",
               "onsetDateTime": "2005-07-04"
            },
            "search": {
               "mode": "match"
            }
         },
         {
            "fullUrl": "http://165.227.51.4:9002/baseDstu2/Condition/smart-condition-223",
            "resource": {
               "resourceType": "Condition",
               "id": "smart-condition-223",
               "meta": {
                  "versionId": "1",
                  "lastUpdated": "2019-08-23T22:11:49.351+00:00",
                  "security": [
                     {
                        "system": "http://smarthealthit.org/security/users",
                        "code": "Patient/smart-1134281"
                     },
                     {
                        "system": "http://smarthealthit.org/security/categories",
                        "code": "problems"
                     }
                  ]
               },
               "text": {
                  "status": "generated",
                  "div": "<div xmlns=\"http://www.w3.org/1999/xhtml\">Perinatal cyanotic attacks</div>"
               },
               "patient": {
                  "reference": "Patient/smart-1134281"
               },
               "code": {
                  "coding": [
                     {
                        "system": "http://snomed.info/sct",
                        "code": "95617006",
                        "display": "Perinatal cyanotic attacks"
                     }
                  ],
                  "text": "Perinatal cyanotic attacks"
               },
               "clinicalStatus": "active",
               "verificationStatus": "confirmed",
               "onsetDateTime": "2005-07-04"
            },
            "search": {
               "mode": "match"
            }
         },
         {
            "fullUrl": "http://165.227.51.4:9002/baseDstu2/Condition/smart-condition-224",
            "resource": {
               "resourceType": "Condition",
               "id": "smart-condition-224",
               "meta": {
                  "versionId": "1",
                  "lastUpdated": "2019-08-23T22:11:49.351+00:00",
                  "security": [
                     {
                        "system": "http://smarthealthit.org/security/users",
                        "code": "Patient/smart-1134281"
                     },
                     {
                        "system": "http://smarthealthit.org/security/categories",
                        "code": "problems"
                     }
                  ]
               },
               "text": {
                  "status": "generated",
                  "div": "<div xmlns=\"http://www.w3.org/1999/xhtml\">Respiratory distress syndrome in the newborn</div>"
               },
               "patient": {
                  "reference": "Patient/smart-1134281"
               },
               "code": {
                  "coding": [
                     {
                        "system": "http://snomed.info/sct",
                        "code": "46775006",
                        "display": "Respiratory distress syndrome in the newborn"
                     }
                  ],
                  "text": "Respiratory distress syndrome in the newborn"
               },
               "clinicalStatus": "active",
               "verificationStatus": "confirmed",
               "onsetDateTime": "2005-07-04"
            },
            "search": {
               "mode": "match"
            }
         },
         {
            "fullUrl": "http://165.227.51.4:9002/baseDstu2/Condition/smart-condition-225",
            "resource": {
               "resourceType": "Condition",
               "id": "smart-condition-225",
               "meta": {
                  "versionId": "1",
                  "lastUpdated": "2019-08-23T22:11:49.351+00:00",
                  "security": [
                     {
                        "system": "http://smarthealthit.org/security/users",
                        "code": "Patient/smart-1134281"
                     },
                     {
                        "system": "http://smarthealthit.org/security/categories",
                        "code": "problems"
                     }
                  ]
               },
               "text": {
                  "status": "generated",
                  "div": "<div xmlns=\"http://www.w3.org/1999/xhtml\">Scalp injury</div>"
               },
               "patient": {
                  "reference": "Patient/smart-1134281"
               },
               "code": {
                  "coding": [
                     {
                        "system": "http://snomed.info/sct",
                        "code": "206200000",
                        "display": "Scalp injury"
                     }
                  ],
                  "text": "Scalp injury"
               },
               "clinicalStatus": "active",
               "verificationStatus": "confirmed",
               "onsetDateTime": "2005-07-04"
            },
            "search": {
               "mode": "match"
            }
         },
         {
            "fullUrl": "http://165.227.51.4:9002/baseDstu2/Condition/smart-condition-226",
            "resource": {
               "resourceType": "Condition",
               "id": "smart-condition-226",
               "meta": {
                  "versionId": "1",
                  "lastUpdated": "2019-08-23T22:11:49.351+00:00",
                  "security": [
                     {
                        "system": "http://smarthealthit.org/security/users",
                        "code": "Patient/smart-1134281"
                     },
                     {
                        "system": "http://smarthealthit.org/security/categories",
                        "code": "problems"
                     }
                  ]
               },
               "text": {
                  "status": "generated",
                  "div": "<div xmlns=\"http://www.w3.org/1999/xhtml\">Single liveborn, born in hospital, delivered without mention of cesarean section</div>"
               },
               "patient": {
                  "reference": "Patient/smart-1134281"
               },
               "code": {
                  "coding": [
                     {
                        "system": "http://snomed.info/sct",
                        "code": "442311008",
                        "display": "Single liveborn, born in hospital, delivered without mention of cesarean section"
                     }
                  ],
                  "text": "Single liveborn, born in hospital, delivered without mention of cesarean section"
               },
               "clinicalStatus": "active",
               "verificationStatus": "confirmed",
               "onsetDateTime": "2005-07-04"
            },
            "search": {
               "mode": "match"
            }
         },
         {
            "fullUrl": "http://165.227.51.4:9002/baseDstu2/Condition/smart-condition-227",
            "resource": {
               "resourceType": "Condition",
               "id": "smart-condition-227",
               "meta": {
                  "versionId": "1",
                  "lastUpdated": "2019-08-23T22:11:49.351+00:00",
                  "security": [
                     {
                        "system": "http://smarthealthit.org/security/users",
                        "code": "Patient/smart-1134281"
                     },
                     {
                        "system": "http://smarthealthit.org/security/categories",
                        "code": "problems"
                     }
                  ]
               },
               "text": {
                  "status": "generated",
                  "div": "<div xmlns=\"http://www.w3.org/1999/xhtml\">Neonatal jaundice</div>"
               },
               "patient": {
                  "reference": "Patient/smart-1134281"
               },
               "code": {
                  "coding": [
                     {
                        "system": "http://snomed.info/sct",
                        "code": "387712008",
                        "display": "Neonatal jaundice"
                     }
                  ],
                  "text": "Neonatal jaundice"
               },
               "clinicalStatus": "active",
               "verificationStatus": "confirmed",
               "onsetDateTime": "2005-07-08"
            },
            "search": {
               "mode": "match"
            }
         },
         {
            "fullUrl": "http://165.227.51.4:9002/baseDstu2/Condition/smart-condition-228",
            "resource": {
               "resourceType": "Condition",
               "id": "smart-condition-228",
               "meta": {
                  "versionId": "1",
                  "lastUpdated": "2019-08-23T22:11:49.351+00:00",
                  "security": [
                     {
                        "system": "http://smarthealthit.org/security/users",
                        "code": "Patient/smart-1134281"
                     },
                     {
                        "system": "http://smarthealthit.org/security/categories",
                        "code": "problems"
                     }
                  ]
               },
               "text": {
                  "status": "generated",
                  "div": "<div xmlns=\"http://www.w3.org/1999/xhtml\">Jaundice</div>"
               },
               "patient": {
                  "reference": "Patient/smart-1134281"
               },
               "code": {
                  "coding": [
                     {
                        "system": "http://snomed.info/sct",
                        "code": "18165001",
                        "display": "Jaundice"
                     }
                  ],
                  "text": "Jaundice"
               },
               "clinicalStatus": "active",
               "verificationStatus": "confirmed",
               "onsetDateTime": "2005-07-10"
            },
            "search": {
               "mode": "match"
            }
         },
         {
            "fullUrl": "http://165.227.51.4:9002/baseDstu2/Condition/smart-condition-229",
            "resource": {
               "resourceType": "Condition",
               "id": "smart-condition-229",
               "meta": {
                  "versionId": "1",
                  "lastUpdated": "2019-08-23T22:11:49.351+00:00",
                  "security": [
                     {
                        "system": "http://smarthealthit.org/security/users",
                        "code": "Patient/smart-1134281"
                     },
                     {
                        "system": "http://smarthealthit.org/security/categories",
                        "code": "problems"
                     }
                  ]
               },
               "text": {
                  "status": "generated",
                  "div": "<div xmlns=\"http://www.w3.org/1999/xhtml\">Acute upper respiratory infection</div>"
               },
               "patient": {
                  "reference": "Patient/smart-1134281"
               },
               "code": {
                  "coding": [
                     {
                        "system": "http://snomed.info/sct",
                        "code": "54150009",
                        "display": "Acute upper respiratory infection"
                     }
                  ],
                  "text": "Acute upper respiratory infection"
               },
               "clinicalStatus": "active",
               "verificationStatus": "confirmed",
               "onsetDateTime": "2005-11-28"
            },
            "search": {
               "mode": "match"
            }
         },
         {
            "fullUrl": "http://165.227.51.4:9002/baseDstu2/Condition/smart-condition-230",
            "resource": {
               "resourceType": "Condition",
               "id": "smart-condition-230",
               "meta": {
                  "versionId": "1",
                  "lastUpdated": "2019-08-23T22:11:49.351+00:00",
                  "security": [
                     {
                        "system": "http://smarthealthit.org/security/users",
                        "code": "Patient/smart-1134281"
                     },
                     {
                        "system": "http://smarthealthit.org/security/categories",
                        "code": "problems"
                     }
                  ]
               },
               "text": {
                  "status": "generated",
                  "div": "<div xmlns=\"http://www.w3.org/1999/xhtml\">Gastroesophageal reflux disease</div>"
               },
               "patient": {
                  "reference": "Patient/smart-1134281"
               },
               "code": {
                  "coding": [
                     {
                        "system": "http://snomed.info/sct",
                        "code": "235595009",
                        "display": "Gastroesophageal reflux disease"
                     }
                  ],
                  "text": "Gastroesophageal reflux disease"
               },
               "clinicalStatus": "active",
               "verificationStatus": "confirmed",
               "onsetDateTime": "2006-02-09"
            },
            "search": {
               "mode": "match"
            }
         },
         {
            "fullUrl": "http://165.227.51.4:9002/baseDstu2/Condition/smart-condition-231",
            "resource": {
               "resourceType": "Condition",
               "id": "smart-condition-231",
               "meta": {
                  "versionId": "1",
                  "lastUpdated": "2019-08-23T22:11:49.351+00:00",
                  "security": [
                     {
                        "system": "http://smarthealthit.org/security/users",
                        "code": "Patient/smart-1134281"
                     },
                     {
                        "system": "http://smarthealthit.org/security/categories",
                        "code": "problems"
                     }
                  ]
               },
               "text": {
                  "status": "generated",
                  "div": "<div xmlns=\"http://www.w3.org/1999/xhtml\">Otitis media</div>"
               },
               "patient": {
                  "reference": "Patient/smart-1134281"
               },
               "code": {
                  "coding": [
                     {
                        "system": "http://snomed.info/sct",
                        "code": "65363002",
                        "display": "Otitis media"
                     }
                  ],
                  "text": "Otitis media"
               },
               "clinicalStatus": "active",
               "verificationStatus": "confirmed",
               "onsetDateTime": "2006-08-31"
            },
            "search": {
               "mode": "match"
            }
         },
         {
            "fullUrl": "http://165.227.51.4:9002/baseDstu2/Condition/smart-condition-232",
            "resource": {
               "resourceType": "Condition",
               "id": "smart-condition-232",
               "meta": {
                  "versionId": "1",
                  "lastUpdated": "2019-08-23T22:11:49.351+00:00",
                  "security": [
                     {
                        "system": "http://smarthealthit.org/security/users",
                        "code": "Patient/smart-1134281"
                     },
                     {
                        "system": "http://smarthealthit.org/security/categories",
                        "code": "problems"
                     }
                  ]
               },
               "text": {
                  "status": "generated",
                  "div": "<div xmlns=\"http://www.w3.org/1999/xhtml\">Other and unspecified noninfectious gastroenteritis and colitis</div>"
               },
               "patient": {
                  "reference": "Patient/smart-1134281"
               },
               "code": {
                  "coding": [
                     {
                        "system": "http://snomed.info/sct",
                        "code": "25374005",
                        "display": "Other and unspecified noninfectious gastroenteritis and colitis"
                     }
                  ],
                  "text": "Other and unspecified noninfectious gastroenteritis and colitis"
               },
               "clinicalStatus": "active",
               "verificationStatus": "confirmed",
               "onsetDateTime": "2006-12-14"
            },
            "search": {
               "mode": "match"
            }
         },
         {
            "fullUrl": "http://165.227.51.4:9002/baseDstu2/Condition/smart-condition-233",
            "resource": {
               "resourceType": "Condition",
               "id": "smart-condition-233",
               "meta": {
                  "versionId": "1",
                  "lastUpdated": "2019-08-23T22:11:49.351+00:00",
                  "security": [
                     {
                        "system": "http://smarthealthit.org/security/categories",
                        "code": "problems"
                     },
                     {
                        "system": "http://smarthealthit.org/security/users",
                        "code": "Patient/smart-1134281"
                     }
                  ]
               },
               "text": {
                  "status": "generated",
                  "div": "<div xmlns=\"http://www.w3.org/1999/xhtml\">Acute sinusitis</div>"
               },
               "patient": {
                  "reference": "Patient/smart-1134281"
               },
               "code": {
                  "coding": [
                     {
                        "system": "http://snomed.info/sct",
                        "code": "36971009",
                        "display": "Acute sinusitis"
                     }
                  ],
                  "text": "Acute sinusitis"
               },
               "clinicalStatus": "active",
               "verificationStatus": "confirmed",
               "onsetDateTime": "2009-06-17"
            },
            "search": {
               "mode": "match"
            }
         },
         {
            "fullUrl": "http://165.227.51.4:9002/baseDstu2/Immunization/smart-immunization-10",
            "resource": {
               "resourceType": "Immunization",
               "id": "smart-immunization-10",
               "meta": {
                  "versionId": "1",
                  "lastUpdated": "2019-08-23T22:11:49.351+00:00",
                  "security": [
                     {
                        "system": "http://smarthealthit.org/security/categories",
                        "code": "immunizations"
                     },
                     {
                        "system": "http://smarthealthit.org/security/users",
                        "code": "Patient/smart-1134281"
                     }
                  ]
               },
               "text": {
                  "status": "generated",
                  "div": "<div xmlns=\"http://www.w3.org/1999/xhtml\">varicella virus vaccine</div>"
               },
               "date": "2009-03-11",
               "vaccineCode": {
                  "coding": [
                     {
                        "system": "http://www2a.cdc.gov/vaccines/IIS/IISStandards/vaccines.asp?rpt=cvx",
                        "code": "21",
                        "display": "varicella virus vaccine"
                     }
                  ]
               },
               "patient": {
                  "reference": "Patient/smart-1134281"
               },
               "wasNotGiven": true,
               "reported": false,
               "explanation": {
                  "reasonNotGiven": [
                     {
                        "coding": [
                           {
                              "system": "http://smarthealthit.org/terms/codes/ImmunizationRefusalReason#",
                              "code": "documentedImmunityOrPreviousDisease",
                              "display": "Documented immunity or previous disease"
                           }
                        ]
                     }
                  ]
               }
            },
            "search": {
               "mode": "match"
            }
         },
         {
            "fullUrl": "http://165.227.51.4:9002/baseDstu2/Immunization/smart-immunization-11",
            "resource": {
               "resourceType": "Immunization",
               "id": "smart-immunization-11",
               "meta": {
                  "versionId": "1",
                  "lastUpdated": "2019-08-23T22:11:49.351+00:00",
                  "security": [
                     {
                        "system": "http://smarthealthit.org/security/categories",
                        "code": "immunizations"
                     },
                     {
                        "system": "http://smarthealthit.org/security/users",
                        "code": "Patient/smart-1134281"
                     }
                  ]
               },
               "text": {
                  "status": "generated",
                  "div": "<div xmlns=\"http://www.w3.org/1999/xhtml\">hepatitis A and hepatitis B vaccine</div>"
               },
               "date": "2005-11-11",
               "vaccineCode": {
                  "coding": [
                     {
                        "system": "http://www2a.cdc.gov/vaccines/IIS/IISStandards/vaccines.asp?rpt=cvx",
                        "code": "104",
                        "display": "hepatitis A and hepatitis B vaccine"
                     }
                  ]
               },
               "patient": {
                  "reference": "Patient/smart-1134281"
               },
               "wasNotGiven": false,
               "reported": false
            },
            "search": {
               "mode": "match"
            }
         },
         {
            "fullUrl": "http://165.227.51.4:9002/baseDstu2/Observation/smart-observation-9-smokingstatus",
            "resource": {
               "resourceType": "Observation",
               "id": "smart-observation-9-smokingstatus",
               "meta": {
                  "versionId": "1",
                  "lastUpdated": "2019-08-23T22:11:49.351+00:00",
                  "security": [
                     {
                        "system": "http://smarthealthit.org/security/users",
                        "code": "Patient/smart-1134281"
                     },
                     {
                        "system": "http://smarthealthit.org/security/categories",
                        "code": "smoking"
                     }
                  ]
               },
               "text": {
                  "status": "generated",
                  "div": "<div xmlns=\"http://www.w3.org/1999/xhtml\">Tobacco smoking status: Never smoker</div>"
               },
               "status": "final",
               "category": {
                  "coding": [
                     {
                        "system": "http://hl7.org/fhir/observation-category",
                        "code": "social-history",
                        "display": "Social History"
                     }
                  ],
                  "text": "Social History"
               },
               "code": {
                  "coding": [
                     {
                        "system": "http://loinc.org",
                        "code": "72166-2",
                        "display": "Tobacco smoking status"
                     }
                  ],
                  "text": "Tobacco smoking status"
               },
               "subject": {
                  "reference": "Patient/smart-1134281"
               },
               "valueCodeableConcept": {
                  "coding": [
                     {
                        "system": "http://snomed.info/sct",
                        "code": "266919005",
                        "display": "Never smoker"
                     }
                  ],
                  "text": "Never smoker"
               }
            },
            "search": {
               "mode": "match"
            }
         },
         {
            "fullUrl": "http://165.227.51.4:9002/baseDstu2/List/smart-list-22",
            "resource": {
               "resourceType": "List",
               "id": "smart-list-22",
               "meta": {
                  "versionId": "1",
                  "lastUpdated": "2019-08-23T22:11:49.351+00:00"
               },
               "text": {
                  "status": "generated",
                  "div": "<div xmlns=\"http://www.w3.org/1999/xhtml\">No known allergies</div>"
               },
               "code": {
                  "coding": [
                     {
                        "system": "http://loinc.org/",
                        "code": "52473-6",
                        "display": "Allergy"
                     }
                  ],
                  "text": "Allergy"
               },
               "subject": {
                  "reference": "Patient/smart-1134281"
               },
               "date": "2000",
               "mode": "snapshot",
               "emptyReason": {
                  "coding": [
                     {
                        "system": "http://hl7.org/fhir/list-empty-reason",
                        "code": "nilknown",
                        "display": "Nil Known"
                     }
                  ],
                  "text": "Nil Known"
               }
            },
            "search": {
               "mode": "match"
            }
         },
         {
            "fullUrl": "http://165.227.51.4:9002/baseDstu2/Patient/smart-1134281",
            "resource": {
               "resourceType": "Patient",
               "id": "smart-1134281",
               "meta": {
                  "versionId": "1",
                  "lastUpdated": "2019-08-23T22:11:49.351+00:00",
                  "security": [
                     {
                        "system": "http://smarthealthit.org/security/users",
                        "code": "Patient/smart-1134281"
                     },
                     {
                        "system": "http://smarthealthit.org/security/categories",
                        "code": "patient"
                     }
                  ]
               },
               "text": {
                  "status": "generated",
                  "div": "<div xmlns=\"http://www.w3.org/1999/xhtml\">        <p>Patrick Taylor</p>      </div>"
               },
               "identifier": [
                  {
                     "use": "usual",
                     "type": {
                        "coding": [
                           {
                              "system": "http://hl7.org/fhir/v2/0203",
                              "code": "MR",
                              "display": "Medical record number"
                           }
                        ],
                        "text": "Medical record number"
                     },
                     "system": "http://hospital.smarthealthit.org",
                     "value": "1134281"
                  }
               ],
               "active": true,
               "name": [
                  {
                     "use": "official",
                     "family": [
                        "Taylor"
                     ],
                     "given": [
                        "Patrick",
                        "G."
                     ]
                  }
               ],
               "telecom": [
                  {
                     "system": "phone",
                     "value": "800-539-3986",
                     "use": "home"
                  },
                  {
                     "system": "email",
                     "value": "patrick.taylor@example.com"
                  }
               ],
               "gender": "male",
               "birthDate": "2004-10-15",
               "address": [
                  {
                     "use": "home",
                     "line": [
                        "24 Pine RdApt 3"
                     ],
                     "city": "Bixby",
                     "state": "OK",
                     "postalCode": "74008",
                     "country": "USA"
                  }
               ]
            },
            "search": {
               "mode": "include"
            }
         },
         {
            "fullUrl": "http://165.227.51.4:9002/baseDstu2/Observation/smart-observation-1681-lab",
            "resource": {
               "resourceType": "Observation",
               "id": "smart-observation-1681-lab",
               "meta": {
                  "versionId": "1",
                  "lastUpdated": "2019-08-23T22:11:49.351+00:00",
                  "security": [
                     {
                        "system": "http://smarthealthit.org/security/users",
                        "code": "Patient/smart-1134281"
                     },
                     {
                        "system": "http://smarthealthit.org/security/categories",
                        "code": "laboratory"
                     }
                  ]
               },
               "text": {
                  "status": "generated",
                  "div": "<div xmlns=\"http://www.w3.org/1999/xhtml\">2005-07-04: Base excess Bld-sCnc = -6 mmol/L</div>"
               },
               "status": "final",
               "category": {
                  "coding": [
                     {
                        "system": "http://hl7.org/fhir/observation-category",
                        "code": "laboratory",
                        "display": "Laboratory"
                     }
                  ],
                  "text": "Laboratory"
               },
               "code": {
                  "coding": [
                     {
                        "system": "http://loinc.org",
                        "code": "11555-0",
                        "display": "Base excess Bld-sCnc"
                     }
                  ],
                  "text": "Base excess Bld-sCnc"
               },
               "subject": {
                  "reference": "Patient/smart-1134281"
               },
               "effectiveDateTime": "2005-07-04",
               "valueQuantity": {
                  "value": -6,
                  "unit": "mmol/L",
                  "system": "http://unitsofmeasure.org"
               },
               "referenceRange": [
                  {
                     "low": {
                        "value": 0,
                        "unit": "mmol/L",
                        "system": "http://unitsofmeasure.org",
                        "code": "mmol/L"
                     },
                     "high": {
                        "value": 0,
                        "unit": "mmol/L",
                        "system": "http://unitsofmeasure.org",
                        "code": "mmol/L"
                     },
                     "meaning": {
                        "coding": [
                           {
                              "system": "http://hl7.org/fhir/referencerange-meaning",
                              "code": "normal",
                              "display": "Normal Range"
                           }
                        ],
                        "text": "Normal Range"
                     }
                  }
               ]
            },
            "search": {
               "mode": "match"
            }
         },
         {
            "fullUrl": "http://165.227.51.4:9002/baseDstu2/Observation/smart-observation-1682-lab",
            "resource": {
               "resourceType": "Observation",
               "id": "smart-observation-1682-lab",
               "meta": {
                  "versionId": "1",
                  "lastUpdated": "2019-08-23T22:11:49.351+00:00",
                  "security": [
                     {
                        "system": "http://smarthealthit.org/security/categories",
                        "code": "laboratory"
                     },
                     {
                        "system": "http://smarthealthit.org/security/users",
                        "code": "Patient/smart-1134281"
                     }
                  ]
               },
               "text": {
                  "status": "generated",
                  "div": "<div xmlns=\"http://www.w3.org/1999/xhtml\">2005-07-04: CO2 Bld-sCnc = 24 mmol/L</div>"
               },
               "status": "final",
               "category": {
                  "coding": [
                     {
                        "system": "http://hl7.org/fhir/observation-category",
                        "code": "laboratory",
                        "display": "Laboratory"
                     }
                  ],
                  "text": "Laboratory"
               },
               "code": {
                  "coding": [
                     {
                        "system": "http://loinc.org",
                        "code": "20565-8",
                        "display": "CO2 Bld-sCnc"
                     }
                  ],
                  "text": "CO2 Bld-sCnc"
               },
               "subject": {
                  "reference": "Patient/smart-1134281"
               },
               "effectiveDateTime": "2005-07-04",
               "valueQuantity": {
                  "value": 24,
                  "unit": "mmol/L",
                  "system": "http://unitsofmeasure.org"
               },
               "referenceRange": [
                  {
                     "low": {
                        "value": 22,
                        "unit": "mmol/L",
                        "system": "http://unitsofmeasure.org",
                        "code": "mmol/L"
                     },
                     "high": {
                        "value": 29,
                        "unit": "mmol/L",
                        "system": "http://unitsofmeasure.org",
                        "code": "mmol/L"
                     },
                     "meaning": {
                        "coding": [
                           {
                              "system": "http://hl7.org/fhir/referencerange-meaning",
                              "code": "normal",
                              "display": "Normal Range"
                           }
                        ],
                        "text": "Normal Range"
                     }
                  }
               ]
            },
            "search": {
               "mode": "match"
            }
         },
         {
            "fullUrl": "http://165.227.51.4:9002/baseDstu2/Observation/smart-observation-1683-lab",
            "resource": {
               "resourceType": "Observation",
               "id": "smart-observation-1683-lab",
               "meta": {
                  "versionId": "1",
                  "lastUpdated": "2019-08-23T22:11:49.351+00:00",
                  "security": [
                     {
                        "system": "http://smarthealthit.org/security/users",
                        "code": "Patient/smart-1134281"
                     },
                     {
                        "system": "http://smarthealthit.org/security/categories",
                        "code": "laboratory"
                     }
                  ]
               },
               "text": {
                  "status": "generated",
                  "div": "<div xmlns=\"http://www.w3.org/1999/xhtml\">2005-07-04: SaO2% from pO2 Bld = 92 %</div>"
               },
               "status": "final",
               "category": {
                  "coding": [
                     {
                        "system": "http://hl7.org/fhir/observation-category",
                        "code": "laboratory",
                        "display": "Laboratory"
                     }
                  ],
                  "text": "Laboratory"
               },
               "code": {
                  "coding": [
                     {
                        "system": "http://loinc.org",
                        "code": "2713-6",
                        "display": "SaO2% from pO2 Bld"
                     }
                  ],
                  "text": "SaO2% from pO2 Bld"
               },
               "subject": {
                  "reference": "Patient/smart-1134281"
               },
               "effectiveDateTime": "2005-07-04",
               "valueQuantity": {
                  "value": 92,
                  "unit": "%",
                  "system": "http://unitsofmeasure.org"
               },
               "referenceRange": [
                  {
                     "low": {
                        "value": 95,
                        "unit": "%",
                        "system": "http://unitsofmeasure.org",
                        "code": "%"
                     },
                     "high": {
                        "value": 98,
                        "unit": "%",
                        "system": "http://unitsofmeasure.org",
                        "code": "%"
                     },
                     "meaning": {
                        "coding": [
                           {
                              "system": "http://hl7.org/fhir/referencerange-meaning",
                              "code": "normal",
                              "display": "Normal Range"
                           }
                        ],
                        "text": "Normal Range"
                     }
                  }
               ]
            },
            "search": {
               "mode": "match"
            }
         },
         {
            "fullUrl": "http://165.227.51.4:9002/baseDstu2/Observation/smart-observation-1684-lab",
            "resource": {
               "resourceType": "Observation",
               "id": "smart-observation-1684-lab",
               "meta": {
                  "versionId": "1",
                  "lastUpdated": "2019-08-23T22:11:49.351+00:00",
                  "security": [
                     {
                        "system": "http://smarthealthit.org/security/users",
                        "code": "Patient/smart-1134281"
                     },
                     {
                        "system": "http://smarthealthit.org/security/categories",
                        "code": "laboratory"
                     }
                  ]
               },
               "text": {
                  "status": "generated",
                  "div": "<div xmlns=\"http://www.w3.org/1999/xhtml\">2005-07-04: SaO2% from pO2 Bld = 89 %</div>"
               },
               "status": "final",
               "category": {
                  "coding": [
                     {
                        "system": "http://hl7.org/fhir/observation-category",
                        "code": "laboratory",
                        "display": "Laboratory"
                     }
                  ],
                  "text": "Laboratory"
               },
               "code": {
                  "coding": [
                     {
                        "system": "http://loinc.org",
                        "code": "2713-6",
                        "display": "SaO2% from pO2 Bld"
                     }
                  ],
                  "text": "SaO2% from pO2 Bld"
               },
               "subject": {
                  "reference": "Patient/smart-1134281"
               },
               "effectiveDateTime": "2005-07-04",
               "valueQuantity": {
                  "value": 89,
                  "unit": "%",
                  "system": "http://unitsofmeasure.org"
               },
               "referenceRange": [
                  {
                     "low": {
                        "value": 95,
                        "unit": "%",
                        "system": "http://unitsofmeasure.org",
                        "code": "%"
                     },
                     "high": {
                        "value": 98,
                        "unit": "%",
                        "system": "http://unitsofmeasure.org",
                        "code": "%"
                     },
                     "meaning": {
                        "coding": [
                           {
                              "system": "http://hl7.org/fhir/referencerange-meaning",
                              "code": "normal",
                              "display": "Normal Range"
                           }
                        ],
                        "text": "Normal Range"
                     }
                  }
               ]
            },
            "search": {
               "mode": "match"
            }
         },
         {
            "fullUrl": "http://165.227.51.4:9002/baseDstu2/Observation/smart-observation-1685-lab",
            "resource": {
               "resourceType": "Observation",
               "id": "smart-observation-1685-lab",
               "meta": {
                  "versionId": "1",
                  "lastUpdated": "2019-08-23T22:11:49.351+00:00",
                  "security": [
                     {
                        "system": "http://smarthealthit.org/security/categories",
                        "code": "laboratory"
                     },
                     {
                        "system": "http://smarthealthit.org/security/users",
                        "code": "Patient/smart-1134281"
                     }
                  ]
               },
               "text": {
                  "status": "generated",
                  "div": "<div xmlns=\"http://www.w3.org/1999/xhtml\">2005-07-04: Glucose Bld-mCnc = 71 mg/dL</div>"
               },
               "status": "final",
               "category": {
                  "coding": [
                     {
                        "system": "http://hl7.org/fhir/observation-category",
                        "code": "laboratory",
                        "display": "Laboratory"
                     }
                  ],
                  "text": "Laboratory"
               },
               "code": {
                  "coding": [
                     {
                        "system": "http://loinc.org",
                        "code": "2339-0",
                        "display": "Glucose Bld-mCnc"
                     }
                  ],
                  "text": "Glucose Bld-mCnc"
               },
               "subject": {
                  "reference": "Patient/smart-1134281"
               },
               "effectiveDateTime": "2005-07-04",
               "valueQuantity": {
                  "value": 71,
                  "unit": "mg/dL",
                  "system": "http://unitsofmeasure.org"
               },
               "referenceRange": [
                  {
                     "low": {
                        "value": 40,
                        "unit": "mg/dL",
                        "system": "http://unitsofmeasure.org",
                        "code": "mg/dL"
                     },
                     "high": {
                        "value": 109,
                        "unit": "mg/dL",
                        "system": "http://unitsofmeasure.org",
                        "code": "mg/dL"
                     },
                     "meaning": {
                        "coding": [
                           {
                              "system": "http://hl7.org/fhir/referencerange-meaning",
                              "code": "normal",
                              "display": "Normal Range"
                           }
                        ],
                        "text": "Normal Range"
                     }
                  }
               ]
            },
            "search": {
               "mode": "match"
            }
         },
         {
            "fullUrl": "http://165.227.51.4:9002/baseDstu2/Observation/smart-observation-1686-lab",
            "resource": {
               "resourceType": "Observation",
               "id": "smart-observation-1686-lab",
               "meta": {
                  "versionId": "1",
                  "lastUpdated": "2019-08-23T22:11:49.351+00:00",
                  "security": [
                     {
                        "system": "http://smarthealthit.org/security/users",
                        "code": "Patient/smart-1134281"
                     },
                     {
                        "system": "http://smarthealthit.org/security/categories",
                        "code": "laboratory"
                     }
                  ]
               },
               "text": {
                  "status": "generated",
                  "div": "<div xmlns=\"http://www.w3.org/1999/xhtml\">2005-07-04: Glucose Bld-mCnc = 109 mg/dL</div>"
               },
               "status": "final",
               "category": {
                  "coding": [
                     {
                        "system": "http://hl7.org/fhir/observation-category",
                        "code": "laboratory",
                        "display": "Laboratory"
                     }
                  ],
                  "text": "Laboratory"
               },
               "code": {
                  "coding": [
                     {
                        "system": "http://loinc.org",
                        "code": "2339-0",
                        "display": "Glucose Bld-mCnc"
                     }
                  ],
                  "text": "Glucose Bld-mCnc"
               },
               "subject": {
                  "reference": "Patient/smart-1134281"
               },
               "effectiveDateTime": "2005-07-04",
               "valueQuantity": {
                  "value": 109,
                  "unit": "mg/dL",
                  "system": "http://unitsofmeasure.org"
               },
               "referenceRange": [
                  {
                     "low": {
                        "value": 40,
                        "unit": "mg/dL",
                        "system": "http://unitsofmeasure.org",
                        "code": "mg/dL"
                     },
                     "high": {
                        "value": 109,
                        "unit": "mg/dL",
                        "system": "http://unitsofmeasure.org",
                        "code": "mg/dL"
                     },
                     "meaning": {
                        "coding": [
                           {
                              "system": "http://hl7.org/fhir/referencerange-meaning",
                              "code": "normal",
                              "display": "Normal Range"
                           }
                        ],
                        "text": "Normal Range"
                     }
                  }
               ]
            },
            "search": {
               "mode": "match"
            }
         },
         {
            "fullUrl": "http://165.227.51.4:9002/baseDstu2/Observation/smart-observation-1687-lab",
            "resource": {
               "resourceType": "Observation",
               "id": "smart-observation-1687-lab",
               "meta": {
                  "versionId": "1",
                  "lastUpdated": "2019-08-23T22:11:49.351+00:00",
                  "security": [
                     {
                        "system": "http://smarthealthit.org/security/users",
                        "code": "Patient/smart-1134281"
                     },
                     {
                        "system": "http://smarthealthit.org/security/categories",
                        "code": "laboratory"
                     }
                  ]
               },
               "text": {
                  "status": "generated",
                  "div": "<div xmlns=\"http://www.w3.org/1999/xhtml\">2005-07-04: pH Bld = 7.36 [pH]</div>"
               },
               "status": "final",
               "category": {
                  "coding": [
                     {
                        "system": "http://hl7.org/fhir/observation-category",
                        "code": "laboratory",
                        "display": "Laboratory"
                     }
                  ],
                  "text": "Laboratory"
               },
               "code": {
                  "coding": [
                     {
                        "system": "http://loinc.org",
                        "code": "11558-4",
                        "display": "pH Bld"
                     }
                  ],
                  "text": "pH Bld"
               },
               "subject": {
                  "reference": "Patient/smart-1134281"
               },
               "effectiveDateTime": "2005-07-04",
               "valueQuantity": {
                  "value": 7.36,
                  "unit": "[pH]",
                  "system": "http://unitsofmeasure.org"
               },
               "referenceRange": [
                  {
                     "low": {
                        "value": 7.35,
                        "unit": "[pH]",
                        "system": "http://unitsofmeasure.org",
                        "code": "[pH]"
                     },
                     "high": {
                        "value": 7.45,
                        "unit": "[pH]",
                        "system": "http://unitsofmeasure.org",
                        "code": "[pH]"
                     },
                     "meaning": {
                        "coding": [
                           {
                              "system": "http://hl7.org/fhir/referencerange-meaning",
                              "code": "normal",
                              "display": "Normal Range"
                           }
                        ],
                        "text": "Normal Range"
                     }
                  }
               ]
            },
            "search": {
               "mode": "match"
            }
         },
         {
            "fullUrl": "http://165.227.51.4:9002/baseDstu2/Observation/smart-observation-1688-lab",
            "resource": {
               "resourceType": "Observation",
               "id": "smart-observation-1688-lab",
               "meta": {
                  "versionId": "1",
                  "lastUpdated": "2019-08-23T22:11:49.351+00:00",
                  "security": [
                     {
                        "system": "http://smarthealthit.org/security/categories",
                        "code": "laboratory"
                     },
                     {
                        "system": "http://smarthealthit.org/security/users",
                        "code": "Patient/smart-1134281"
                     }
                  ]
               },
               "text": {
                  "status": "generated",
                  "div": "<div xmlns=\"http://www.w3.org/1999/xhtml\">2005-07-04: pH Bld = 7.22 [pH]</div>"
               },
               "status": "final",
               "category": {
                  "coding": [
                     {
                        "system": "http://hl7.org/fhir/observation-category",
                        "code": "laboratory",
                        "display": "Laboratory"
                     }
                  ],
                  "text": "Laboratory"
               },
               "code": {
                  "coding": [
                     {
                        "system": "http://loinc.org",
                        "code": "11558-4",
                        "display": "pH Bld"
                     }
                  ],
                  "text": "pH Bld"
               },
               "subject": {
                  "reference": "Patient/smart-1134281"
               },
               "effectiveDateTime": "2005-07-04",
               "valueQuantity": {
                  "value": 7.22,
                  "unit": "[pH]",
                  "system": "http://unitsofmeasure.org"
               },
               "referenceRange": [
                  {
                     "low": {
                        "value": 7.35,
                        "unit": "[pH]",
                        "system": "http://unitsofmeasure.org",
                        "code": "[pH]"
                     },
                     "high": {
                        "value": 7.45,
                        "unit": "[pH]",
                        "system": "http://unitsofmeasure.org",
                        "code": "[pH]"
                     },
                     "meaning": {
                        "coding": [
                           {
                              "system": "http://hl7.org/fhir/referencerange-meaning",
                              "code": "normal",
                              "display": "Normal Range"
                           }
                        ],
                        "text": "Normal Range"
                     }
                  }
               ]
            },
            "search": {
               "mode": "match"
            }
         },
         {
            "fullUrl": "http://165.227.51.4:9002/baseDstu2/Observation/smart-observation-1689-lab",
            "resource": {
               "resourceType": "Observation",
               "id": "smart-observation-1689-lab",
               "meta": {
                  "versionId": "1",
                  "lastUpdated": "2019-08-23T22:11:49.351+00:00",
                  "security": [
                     {
                        "system": "http://smarthealthit.org/security/categories",
                        "code": "laboratory"
                     },
                     {
                        "system": "http://smarthealthit.org/security/users",
                        "code": "Patient/smart-1134281"
                     }
                  ]
               },
               "text": {
                  "status": "generated",
                  "div": "<div xmlns=\"http://www.w3.org/1999/xhtml\">2005-07-04: pCO2 Bld = 56 mm[Hg]</div>"
               },
               "status": "final",
               "category": {
                  "coding": [
                     {
                        "system": "http://hl7.org/fhir/observation-category",
                        "code": "laboratory",
                        "display": "Laboratory"
                     }
                  ],
                  "text": "Laboratory"
               },
               "code": {
                  "coding": [
                     {
                        "system": "http://loinc.org",
                        "code": "11557-6",
                        "display": "pCO2 Bld"
                     }
                  ],
                  "text": "pCO2 Bld"
               },
               "subject": {
                  "reference": "Patient/smart-1134281"
               },
               "effectiveDateTime": "2005-07-04",
               "valueQuantity": {
                  "value": 56,
                  "unit": "mm[Hg]",
                  "system": "http://unitsofmeasure.org"
               },
               "referenceRange": [
                  {
                     "low": {
                        "value": 35,
                        "unit": "mm[Hg]",
                        "system": "http://unitsofmeasure.org",
                        "code": "mm[Hg]"
                     },
                     "high": {
                        "value": 45,
                        "unit": "mm[Hg]",
                        "system": "http://unitsofmeasure.org",
                        "code": "mm[Hg]"
                     },
                     "meaning": {
                        "coding": [
                           {
                              "system": "http://hl7.org/fhir/referencerange-meaning",
                              "code": "normal",
                              "display": "Normal Range"
                           }
                        ],
                        "text": "Normal Range"
                     }
                  }
               ]
            },
            "search": {
               "mode": "match"
            }
         },
         {
            "fullUrl": "http://165.227.51.4:9002/baseDstu2/Observation/smart-observation-1690-lab",
            "resource": {
               "resourceType": "Observation",
               "id": "smart-observation-1690-lab",
               "meta": {
                  "versionId": "1",
                  "lastUpdated": "2019-08-23T22:11:49.351+00:00",
                  "security": [
                     {
                        "system": "http://smarthealthit.org/security/users",
                        "code": "Patient/smart-1134281"
                     },
                     {
                        "system": "http://smarthealthit.org/security/categories",
                        "code": "laboratory"
                     }
                  ]
               },
               "text": {
                  "status": "generated",
                  "div": "<div xmlns=\"http://www.w3.org/1999/xhtml\">2005-07-04: pCO2 Bld = 40 mm[Hg]</div>"
               },
               "status": "final",
               "category": {
                  "coding": [
                     {
                        "system": "http://hl7.org/fhir/observation-category",
                        "code": "laboratory",
                        "display": "Laboratory"
                     }
                  ],
                  "text": "Laboratory"
               },
               "code": {
                  "coding": [
                     {
                        "system": "http://loinc.org",
                        "code": "11557-6",
                        "display": "pCO2 Bld"
                     }
                  ],
                  "text": "pCO2 Bld"
               },
               "subject": {
                  "reference": "Patient/smart-1134281"
               },
               "effectiveDateTime": "2005-07-04",
               "valueQuantity": {
                  "value": 40,
                  "unit": "mm[Hg]",
                  "system": "http://unitsofmeasure.org"
               },
               "referenceRange": [
                  {
                     "low": {
                        "value": 35,
                        "unit": "mm[Hg]",
                        "system": "http://unitsofmeasure.org",
                        "code": "mm[Hg]"
                     },
                     "high": {
                        "value": 45,
                        "unit": "mm[Hg]",
                        "system": "http://unitsofmeasure.org",
                        "code": "mm[Hg]"
                     },
                     "meaning": {
                        "coding": [
                           {
                              "system": "http://hl7.org/fhir/referencerange-meaning",
                              "code": "normal",
                              "display": "Normal Range"
                           }
                        ],
                        "text": "Normal Range"
                     }
                  }
               ]
            },
            "search": {
               "mode": "match"
            }
         },
         {
            "fullUrl": "http://165.227.51.4:9002/baseDstu2/Observation/smart-observation-1691-lab",
            "resource": {
               "resourceType": "Observation",
               "id": "smart-observation-1691-lab",
               "meta": {
                  "versionId": "1",
                  "lastUpdated": "2019-08-23T22:11:49.351+00:00",
                  "security": [
                     {
                        "system": "http://smarthealthit.org/security/users",
                        "code": "Patient/smart-1134281"
                     },
                     {
                        "system": "http://smarthealthit.org/security/categories",
                        "code": "laboratory"
                     }
                  ]
               },
               "text": {
                  "status": "generated",
                  "div": "<div xmlns=\"http://www.w3.org/1999/xhtml\">2005-07-04: pO2 Bld = 79 mm[Hg]</div>"
               },
               "status": "final",
               "category": {
                  "coding": [
                     {
                        "system": "http://hl7.org/fhir/observation-category",
                        "code": "laboratory",
                        "display": "Laboratory"
                     }
                  ],
                  "text": "Laboratory"
               },
               "code": {
                  "coding": [
                     {
                        "system": "http://loinc.org",
                        "code": "11556-8",
                        "display": "pO2 Bld"
                     }
                  ],
                  "text": "pO2 Bld"
               },
               "subject": {
                  "reference": "Patient/smart-1134281"
               },
               "effectiveDateTime": "2005-07-04",
               "valueQuantity": {
                  "value": 79,
                  "unit": "mm[Hg]",
                  "system": "http://unitsofmeasure.org"
               },
               "referenceRange": [
                  {
                     "low": {
                        "value": 80,
                        "unit": "mm[Hg]",
                        "system": "http://unitsofmeasure.org",
                        "code": "mm[Hg]"
                     },
                     "high": {
                        "value": 110,
                        "unit": "mm[Hg]",
                        "system": "http://unitsofmeasure.org",
                        "code": "mm[Hg]"
                     },
                     "meaning": {
                        "coding": [
                           {
                              "system": "http://hl7.org/fhir/referencerange-meaning",
                              "code": "normal",
                              "display": "Normal Range"
                           }
                        ],
                        "text": "Normal Range"
                     }
                  }
               ]
            },
            "search": {
               "mode": "match"
            }
         },
         {
            "fullUrl": "http://165.227.51.4:9002/baseDstu2/Observation/smart-observation-1692-lab",
            "resource": {
               "resourceType": "Observation",
               "id": "smart-observation-1692-lab",
               "meta": {
                  "versionId": "1",
                  "lastUpdated": "2019-08-23T22:11:49.351+00:00",
                  "security": [
                     {
                        "system": "http://smarthealthit.org/security/categories",
                        "code": "laboratory"
                     },
                     {
                        "system": "http://smarthealthit.org/security/users",
                        "code": "Patient/smart-1134281"
                     }
                  ]
               },
               "text": {
                  "status": "generated",
                  "div": "<div xmlns=\"http://www.w3.org/1999/xhtml\">2005-07-04: pO2 Bld = 60 mm[Hg]</div>"
               },
               "status": "final",
               "category": {
                  "coding": [
                     {
                        "system": "http://hl7.org/fhir/observation-category",
                        "code": "laboratory",
                        "display": "Laboratory"
                     }
                  ],
                  "text": "Laboratory"
               },
               "code": {
                  "coding": [
                     {
                        "system": "http://loinc.org",
                        "code": "11556-8",
                        "display": "pO2 Bld"
                     }
                  ],
                  "text": "pO2 Bld"
               },
               "subject": {
                  "reference": "Patient/smart-1134281"
               },
               "effectiveDateTime": "2005-07-04",
               "valueQuantity": {
                  "value": 60,
                  "unit": "mm[Hg]",
                  "system": "http://unitsofmeasure.org"
               },
               "referenceRange": [
                  {
                     "low": {
                        "value": 80,
                        "unit": "mm[Hg]",
                        "system": "http://unitsofmeasure.org",
                        "code": "mm[Hg]"
                     },
                     "high": {
                        "value": 110,
                        "unit": "mm[Hg]",
                        "system": "http://unitsofmeasure.org",
                        "code": "mm[Hg]"
                     },
                     "meaning": {
                        "coding": [
                           {
                              "system": "http://hl7.org/fhir/referencerange-meaning",
                              "code": "normal",
                              "display": "Normal Range"
                           }
                        ],
                        "text": "Normal Range"
                     }
                  }
               ]
            },
            "search": {
               "mode": "match"
            }
         },
         {
            "fullUrl": "http://165.227.51.4:9002/baseDstu2/Observation/smart-observation-1693-lab",
            "resource": {
               "resourceType": "Observation",
               "id": "smart-observation-1693-lab",
               "meta": {
                  "versionId": "1",
                  "lastUpdated": "2019-08-23T22:11:49.351+00:00",
                  "security": [
                     {
                        "system": "http://smarthealthit.org/security/users",
                        "code": "Patient/smart-1134281"
                     },
                     {
                        "system": "http://smarthealthit.org/security/categories",
                        "code": "laboratory"
                     }
                  ]
               },
               "text": {
                  "status": "generated",
                  "div": "<div xmlns=\"http://www.w3.org/1999/xhtml\">2005-07-04: HCO3 Bld-sCnc = 23.1 mmol/L</div>"
               },
               "status": "final",
               "category": {
                  "coding": [
                     {
                        "system": "http://hl7.org/fhir/observation-category",
                        "code": "laboratory",
                        "display": "Laboratory"
                     }
                  ],
                  "text": "Laboratory"
               },
               "code": {
                  "coding": [
                     {
                        "system": "http://loinc.org",
                        "code": "1959-6",
                        "display": "HCO3 Bld-sCnc"
                     }
                  ],
                  "text": "HCO3 Bld-sCnc"
               },
               "subject": {
                  "reference": "Patient/smart-1134281"
               },
               "effectiveDateTime": "2005-07-04",
               "valueQuantity": {
                  "value": 23.1,
                  "unit": "mmol/L",
                  "system": "http://unitsofmeasure.org"
               },
               "referenceRange": [
                  {
                     "low": {
                        "value": 22,
                        "unit": "mmol/L",
                        "system": "http://unitsofmeasure.org",
                        "code": "mmol/L"
                     },
                     "high": {
                        "value": 29,
                        "unit": "mmol/L",
                        "system": "http://unitsofmeasure.org",
                        "code": "mmol/L"
                     },
                     "meaning": {
                        "coding": [
                           {
                              "system": "http://hl7.org/fhir/referencerange-meaning",
                              "code": "normal",
                              "display": "Normal Range"
                           }
                        ],
                        "text": "Normal Range"
                     }
                  }
               ]
            },
            "search": {
               "mode": "match"
            }
         },
         {
            "fullUrl": "http://165.227.51.4:9002/baseDstu2/Observation/smart-observation-1694-lab",
            "resource": {
               "resourceType": "Observation",
               "id": "smart-observation-1694-lab",
               "meta": {
                  "versionId": "1",
                  "lastUpdated": "2019-08-23T22:11:49.351+00:00",
                  "security": [
                     {
                        "system": "http://smarthealthit.org/security/users",
                        "code": "Patient/smart-1134281"
                     },
                     {
                        "system": "http://smarthealthit.org/security/categories",
                        "code": "laboratory"
                     }
                  ]
               },
               "text": {
                  "status": "generated",
                  "div": "<div xmlns=\"http://www.w3.org/1999/xhtml\">2005-07-04: HCO3 Bld-sCnc = 22.8 mmol/L</div>"
               },
               "status": "final",
               "category": {
                  "coding": [
                     {
                        "system": "http://hl7.org/fhir/observation-category",
                        "code": "laboratory",
                        "display": "Laboratory"
                     }
                  ],
                  "text": "Laboratory"
               },
               "code": {
                  "coding": [
                     {
                        "system": "http://loinc.org",
                        "code": "1959-6",
                        "display": "HCO3 Bld-sCnc"
                     }
                  ],
                  "text": "HCO3 Bld-sCnc"
               },
               "subject": {
                  "reference": "Patient/smart-1134281"
               },
               "effectiveDateTime": "2005-07-04",
               "valueQuantity": {
                  "value": 22.8,
                  "unit": "mmol/L",
                  "system": "http://unitsofmeasure.org"
               },
               "referenceRange": [
                  {
                     "low": {
                        "value": 22,
                        "unit": "mmol/L",
                        "system": "http://unitsofmeasure.org",
                        "code": "mmol/L"
                     },
                     "high": {
                        "value": 29,
                        "unit": "mmol/L",
                        "system": "http://unitsofmeasure.org",
                        "code": "mmol/L"
                     },
                     "meaning": {
                        "coding": [
                           {
                              "system": "http://hl7.org/fhir/referencerange-meaning",
                              "code": "normal",
                              "display": "Normal Range"
                           }
                        ],
                        "text": "Normal Range"
                     }
                  }
               ]
            },
            "search": {
               "mode": "match"
            }
         },
         {
            "fullUrl": "http://165.227.51.4:9002/baseDstu2/Observation/smart-observation-1695-lab",
            "resource": {
               "resourceType": "Observation",
               "id": "smart-observation-1695-lab",
               "meta": {
                  "versionId": "1",
                  "lastUpdated": "2019-08-23T22:11:49.351+00:00",
                  "security": [
                     {
                        "system": "http://smarthealthit.org/security/categories",
                        "code": "laboratory"
                     },
                     {
                        "system": "http://smarthealthit.org/security/users",
                        "code": "Patient/smart-1134281"
                     }
                  ]
               },
               "text": {
                  "status": "generated",
                  "div": "<div xmlns=\"http://www.w3.org/1999/xhtml\">2005-07-04: CO2 Bld-sCnc = 25 mmol/L</div>"
               },
               "status": "final",
               "category": {
                  "coding": [
                     {
                        "system": "http://hl7.org/fhir/observation-category",
                        "code": "laboratory",
                        "display": "Laboratory"
                     }
                  ],
                  "text": "Laboratory"
               },
               "code": {
                  "coding": [
                     {
                        "system": "http://loinc.org",
                        "code": "20565-8",
                        "display": "CO2 Bld-sCnc"
                     }
                  ],
                  "text": "CO2 Bld-sCnc"
               },
               "subject": {
                  "reference": "Patient/smart-1134281"
               },
               "effectiveDateTime": "2005-07-04",
               "valueQuantity": {
                  "value": 25,
                  "unit": "mmol/L",
                  "system": "http://unitsofmeasure.org"
               },
               "referenceRange": [
                  {
                     "low": {
                        "value": 22,
                        "unit": "mmol/L",
                        "system": "http://unitsofmeasure.org",
                        "code": "mmol/L"
                     },
                     "high": {
                        "value": 29,
                        "unit": "mmol/L",
                        "system": "http://unitsofmeasure.org",
                        "code": "mmol/L"
                     },
                     "meaning": {
                        "coding": [
                           {
                              "system": "http://hl7.org/fhir/referencerange-meaning",
                              "code": "normal",
                              "display": "Normal Range"
                           }
                        ],
                        "text": "Normal Range"
                     }
                  }
               ]
            },
            "search": {
               "mode": "match"
            }
         },
         {
            "fullUrl": "http://165.227.51.4:9002/baseDstu2/Observation/smart-observation-1696-lab",
            "resource": {
               "resourceType": "Observation",
               "id": "smart-observation-1696-lab",
               "meta": {
                  "versionId": "1",
                  "lastUpdated": "2019-08-23T22:11:49.351+00:00",
                  "security": [
                     {
                        "system": "http://smarthealthit.org/security/users",
                        "code": "Patient/smart-1134281"
                     },
                     {
                        "system": "http://smarthealthit.org/security/categories",
                        "code": "laboratory"
                     }
                  ]
               },
               "text": {
                  "status": "generated",
                  "div": "<div xmlns=\"http://www.w3.org/1999/xhtml\">2005-07-04: Base excess Bld-sCnc = -3 mmol/L</div>"
               },
               "status": "final",
               "category": {
                  "coding": [
                     {
                        "system": "http://hl7.org/fhir/observation-category",
                        "code": "laboratory",
                        "display": "Laboratory"
                     }
                  ],
                  "text": "Laboratory"
               },
               "code": {
                  "coding": [
                     {
                        "system": "http://loinc.org",
                        "code": "11555-0",
                        "display": "Base excess Bld-sCnc"
                     }
                  ],
                  "text": "Base excess Bld-sCnc"
               },
               "subject": {
                  "reference": "Patient/smart-1134281"
               },
               "effectiveDateTime": "2005-07-04",
               "valueQuantity": {
                  "value": -3,
                  "unit": "mmol/L",
                  "system": "http://unitsofmeasure.org"
               },
               "referenceRange": [
                  {
                     "low": {
                        "value": 0,
                        "unit": "mmol/L",
                        "system": "http://unitsofmeasure.org",
                        "code": "mmol/L"
                     },
                     "high": {
                        "value": 0,
                        "unit": "mmol/L",
                        "system": "http://unitsofmeasure.org",
                        "code": "mmol/L"
                     },
                     "meaning": {
                        "coding": [
                           {
                              "system": "http://hl7.org/fhir/referencerange-meaning",
                              "code": "normal",
                              "display": "Normal Range"
                           }
                        ],
                        "text": "Normal Range"
                     }
                  }
               ]
            },
            "search": {
               "mode": "match"
            }
         },
         {
            "fullUrl": "http://165.227.51.4:9002/baseDstu2/Observation/smart-observation-1697-lab",
            "resource": {
               "resourceType": "Observation",
               "id": "smart-observation-1697-lab",
               "meta": {
                  "versionId": "1",
                  "lastUpdated": "2019-08-23T22:11:49.351+00:00",
                  "security": [
                     {
                        "system": "http://smarthealthit.org/security/users",
                        "code": "Patient/smart-1134281"
                     },
                     {
                        "system": "http://smarthealthit.org/security/categories",
                        "code": "laboratory"
                     }
                  ]
               },
               "text": {
                  "status": "generated",
                  "div": "<div xmlns=\"http://www.w3.org/1999/xhtml\">2005-07-05: Microcytes Bld Ql Smear = Few </div>"
               },
               "extension": [
                  {
                     "url": "http://fhir-registry.smarthealthit.org/StructureDefinition/labs#value-range",
                     "valueString": "['None', 'Few', 'Many']"
                  }
               ],
               "status": "final",
               "category": {
                  "coding": [
                     {
                        "system": "http://hl7.org/fhir/observation-category",
                        "code": "laboratory",
                        "display": "Laboratory"
                     }
                  ],
                  "text": "Laboratory"
               },
               "code": {
                  "coding": [
                     {
                        "system": "http://loinc.org",
                        "code": "741-9",
                        "display": "Microcytes Bld Ql Smear"
                     }
                  ],
                  "text": "Microcytes Bld Ql Smear"
               },
               "subject": {
                  "reference": "Patient/smart-1134281"
               },
               "effectiveDateTime": "2005-07-05",
               "valueString": "Few"
            },
            "search": {
               "mode": "match"
            }
         },
         {
            "fullUrl": "http://165.227.51.4:9002/baseDstu2/Observation/smart-observation-1698-lab",
            "resource": {
               "resourceType": "Observation",
               "id": "smart-observation-1698-lab",
               "meta": {
                  "versionId": "1",
                  "lastUpdated": "2019-08-23T22:11:49.351+00:00",
                  "security": [
                     {
                        "system": "http://smarthealthit.org/security/categories",
                        "code": "laboratory"
                     },
                     {
                        "system": "http://smarthealthit.org/security/users",
                        "code": "Patient/smart-1134281"
                     }
                  ]
               },
               "text": {
                  "status": "generated",
                  "div": "<div xmlns=\"http://www.w3.org/1999/xhtml\">2005-07-05: Macrocytes Bld Ql Smear = Moderate </div>"
               },
               "extension": [
                  {
                     "url": "http://fhir-registry.smarthealthit.org/StructureDefinition/labs#value-range",
                     "valueString": "['None', 'Slight', 'Moderate', 'Many']"
                  }
               ],
               "status": "final",
               "category": {
                  "coding": [
                     {
                        "system": "http://hl7.org/fhir/observation-category",
                        "code": "laboratory",
                        "display": "Laboratory"
                     }
                  ],
                  "text": "Laboratory"
               },
               "code": {
                  "coding": [
                     {
                        "system": "http://loinc.org",
                        "code": "738-5",
                        "display": "Macrocytes Bld Ql Smear"
                     }
                  ],
                  "text": "Macrocytes Bld Ql Smear"
               },
               "subject": {
                  "reference": "Patient/smart-1134281"
               },
               "effectiveDateTime": "2005-07-05",
               "valueString": "Moderate"
            },
            "search": {
               "mode": "match"
            }
         },
         {
            "fullUrl": "http://165.227.51.4:9002/baseDstu2/Observation/smart-observation-1699-lab",
            "resource": {
               "resourceType": "Observation",
               "id": "smart-observation-1699-lab",
               "meta": {
                  "versionId": "1",
                  "lastUpdated": "2019-08-23T22:11:49.351+00:00",
                  "security": [
                     {
                        "system": "http://smarthealthit.org/security/users",
                        "code": "Patient/smart-1134281"
                     },
                     {
                        "system": "http://smarthealthit.org/security/categories",
                        "code": "laboratory"
                     }
                  ]
               },
               "text": {
                  "status": "generated",
                  "div": "<div xmlns=\"http://www.w3.org/1999/xhtml\">2005-07-05: TB Wheal 3D p 5 TU Diam = 1.4 mm</div>"
               },
               "status": "final",
               "category": {
                  "coding": [
                     {
                        "system": "http://hl7.org/fhir/observation-category",
                        "code": "laboratory",
                        "display": "Laboratory"
                     }
                  ],
                  "text": "Laboratory"
               },
               "code": {
                  "coding": [
                     {
                        "system": "http://loinc.org",
                        "code": "1648-5",
                        "display": "TB Wheal 3D p 5 TU Diam"
                     }
                  ],
                  "text": "TB Wheal 3D p 5 TU Diam"
               },
               "subject": {
                  "reference": "Patient/smart-1134281"
               },
               "effectiveDateTime": "2005-07-05",
               "valueQuantity": {
                  "value": 1.4,
                  "unit": "mm",
                  "system": "http://unitsofmeasure.org"
               },
               "referenceRange": [
                  {
                     "low": {
                        "value": 0.1,
                        "unit": "mm",
                        "system": "http://unitsofmeasure.org",
                        "code": "mm"
                     },
                     "high": {
                        "value": 4.4,
                        "unit": "mm",
                        "system": "http://unitsofmeasure.org",
                        "code": "mm"
                     },
                     "meaning": {
                        "coding": [
                           {
                              "system": "http://hl7.org/fhir/referencerange-meaning",
                              "code": "normal",
                              "display": "Normal Range"
                           }
                        ],
                        "text": "Normal Range"
                     }
                  }
               ]
            },
            "search": {
               "mode": "match"
            }
         },
         {
            "fullUrl": "http://165.227.51.4:9002/baseDstu2/Observation/smart-observation-1700-lab",
            "resource": {
               "resourceType": "Observation",
               "id": "smart-observation-1700-lab",
               "meta": {
                  "versionId": "1",
                  "lastUpdated": "2019-08-23T22:11:49.351+00:00",
                  "security": [
                     {
                        "system": "http://smarthealthit.org/security/users",
                        "code": "Patient/smart-1134281"
                     },
                     {
                        "system": "http://smarthealthit.org/security/categories",
                        "code": "laboratory"
                     }
                  ]
               },
               "text": {
                  "status": "generated",
                  "div": "<div xmlns=\"http://www.w3.org/1999/xhtml\">2005-07-05: Platelet # Bld = 248 10*3/uL</div>"
               },
               "status": "final",
               "category": {
                  "coding": [
                     {
                        "system": "http://hl7.org/fhir/observation-category",
                        "code": "laboratory",
                        "display": "Laboratory"
                     }
                  ],
                  "text": "Laboratory"
               },
               "code": {
                  "coding": [
                     {
                        "system": "http://loinc.org",
                        "code": "26515-7",
                        "display": "Platelet # Bld"
                     }
                  ],
                  "text": "Platelet # Bld"
               },
               "subject": {
                  "reference": "Patient/smart-1134281"
               },
               "effectiveDateTime": "2005-07-05",
               "valueQuantity": {
                  "value": 248,
                  "unit": "10*3/uL",
                  "system": "http://unitsofmeasure.org"
               },
               "referenceRange": [
                  {
                     "low": {
                        "value": 150,
                        "unit": "10*3/uL",
                        "system": "http://unitsofmeasure.org",
                        "code": "10*3/uL"
                     },
                     "high": {
                        "value": 450,
                        "unit": "10*3/uL",
                        "system": "http://unitsofmeasure.org",
                        "code": "10*3/uL"
                     },
                     "meaning": {
                        "coding": [
                           {
                              "system": "http://hl7.org/fhir/referencerange-meaning",
                              "code": "normal",
                              "display": "Normal Range"
                           }
                        ],
                        "text": "Normal Range"
                     }
                  }
               ]
            },
            "search": {
               "mode": "match"
            }
         },
         {
            "fullUrl": "http://165.227.51.4:9002/baseDstu2/Observation/smart-observation-1701-lab",
            "resource": {
               "resourceType": "Observation",
               "id": "smart-observation-1701-lab",
               "meta": {
                  "versionId": "1",
                  "lastUpdated": "2019-08-23T22:11:49.351+00:00",
                  "security": [
                     {
                        "system": "http://smarthealthit.org/security/categories",
                        "code": "laboratory"
                     },
                     {
                        "system": "http://smarthealthit.org/security/users",
                        "code": "Patient/smart-1134281"
                     }
                  ]
               },
               "text": {
                  "status": "generated",
                  "div": "<div xmlns=\"http://www.w3.org/1999/xhtml\">2005-07-05: MCV RBC = 107 fL</div>"
               },
               "status": "final",
               "category": {
                  "coding": [
                     {
                        "system": "http://hl7.org/fhir/observation-category",
                        "code": "laboratory",
                        "display": "Laboratory"
                     }
                  ],
                  "text": "Laboratory"
               },
               "code": {
                  "coding": [
                     {
                        "system": "http://loinc.org",
                        "code": "30428-7",
                        "display": "MCV RBC"
                     }
                  ],
                  "text": "MCV RBC"
               },
               "subject": {
                  "reference": "Patient/smart-1134281"
               },
               "effectiveDateTime": "2005-07-05",
               "valueQuantity": {
                  "value": 107,
                  "unit": "fL",
                  "system": "http://unitsofmeasure.org"
               },
               "referenceRange": [
                  {
                     "low": {
                        "value": 95,
                        "unit": "fL",
                        "system": "http://unitsofmeasure.org",
                        "code": "fL"
                     },
                     "high": {
                        "value": 125,
                        "unit": "fL",
                        "system": "http://unitsofmeasure.org",
                        "code": "fL"
                     },
                     "meaning": {
                        "coding": [
                           {
                              "system": "http://hl7.org/fhir/referencerange-meaning",
                              "code": "normal",
                              "display": "Normal Range"
                           }
                        ],
                        "text": "Normal Range"
                     }
                  }
               ]
            },
            "search": {
               "mode": "match"
            }
         },
         {
            "fullUrl": "http://165.227.51.4:9002/baseDstu2/Observation/smart-observation-1702-lab",
            "resource": {
               "resourceType": "Observation",
               "id": "smart-observation-1702-lab",
               "meta": {
                  "versionId": "1",
                  "lastUpdated": "2019-08-23T22:11:49.351+00:00",
                  "security": [
                     {
                        "system": "http://smarthealthit.org/security/users",
                        "code": "Patient/smart-1134281"
                     },
                     {
                        "system": "http://smarthealthit.org/security/categories",
                        "code": "laboratory"
                     }
                  ]
               },
               "text": {
                  "status": "generated",
                  "div": "<div xmlns=\"http://www.w3.org/1999/xhtml\">2005-07-05: MCH RBC Qn Auto = 37.2 pg</div>"
               },
               "status": "final",
               "category": {
                  "coding": [
                     {
                        "system": "http://hl7.org/fhir/observation-category",
                        "code": "laboratory",
                        "display": "Laboratory"
                     }
                  ],
                  "text": "Laboratory"
               },
               "code": {
                  "coding": [
                     {
                        "system": "http://loinc.org",
                        "code": "785-6",
                        "display": "MCH RBC Qn Auto"
                     }
                  ],
                  "text": "MCH RBC Qn Auto"
               },
               "subject": {
                  "reference": "Patient/smart-1134281"
               },
               "effectiveDateTime": "2005-07-05",
               "valueQuantity": {
                  "value": 37.2,
                  "unit": "pg",
                  "system": "http://unitsofmeasure.org"
               },
               "referenceRange": [
                  {
                     "low": {
                        "value": 30,
                        "unit": "pg",
                        "system": "http://unitsofmeasure.org",
                        "code": "pg"
                     },
                     "high": {
                        "value": 42,
                        "unit": "pg",
                        "system": "http://unitsofmeasure.org",
                        "code": "pg"
                     },
                     "meaning": {
                        "coding": [
                           {
                              "system": "http://hl7.org/fhir/referencerange-meaning",
                              "code": "normal",
                              "display": "Normal Range"
                           }
                        ],
                        "text": "Normal Range"
                     }
                  }
               ]
            },
            "search": {
               "mode": "match"
            }
         },
         {
            "fullUrl": "http://165.227.51.4:9002/baseDstu2/Observation/smart-observation-1703-lab",
            "resource": {
               "resourceType": "Observation",
               "id": "smart-observation-1703-lab",
               "meta": {
                  "versionId": "1",
                  "lastUpdated": "2019-08-23T22:11:49.351+00:00",
                  "security": [
                     {
                        "system": "http://smarthealthit.org/security/users",
                        "code": "Patient/smart-1134281"
                     },
                     {
                        "system": "http://smarthealthit.org/security/categories",
                        "code": "laboratory"
                     }
                  ]
               },
               "text": {
                  "status": "generated",
                  "div": "<div xmlns=\"http://www.w3.org/1999/xhtml\">2005-07-05: MCHC RBC Auto-mCnc = 34.7 g/dL</div>"
               },
               "status": "final",
               "category": {
                  "coding": [
                     {
                        "system": "http://hl7.org/fhir/observation-category",
                        "code": "laboratory",
                        "display": "Laboratory"
                     }
                  ],
                  "text": "Laboratory"
               },
               "code": {
                  "coding": [
                     {
                        "system": "http://loinc.org",
                        "code": "786-4",
                        "display": "MCHC RBC Auto-mCnc"
                     }
                  ],
                  "text": "MCHC RBC Auto-mCnc"
               },
               "subject": {
                  "reference": "Patient/smart-1134281"
               },
               "effectiveDateTime": "2005-07-05",
               "valueQuantity": {
                  "value": 34.7,
                  "unit": "g/dL",
                  "system": "http://unitsofmeasure.org"
               },
               "referenceRange": [
                  {
                     "low": {
                        "value": 30,
                        "unit": "g/dL",
                        "system": "http://unitsofmeasure.org",
                        "code": "g/dL"
                     },
                     "high": {
                        "value": 34,
                        "unit": "g/dL",
                        "system": "http://unitsofmeasure.org",
                        "code": "g/dL"
                     },
                     "meaning": {
                        "coding": [
                           {
                              "system": "http://hl7.org/fhir/referencerange-meaning",
                              "code": "normal",
                              "display": "Normal Range"
                           }
                        ],
                        "text": "Normal Range"
                     }
                  }
               ]
            },
            "search": {
               "mode": "match"
            }
         },
         {
            "fullUrl": "http://165.227.51.4:9002/baseDstu2/Observation/smart-observation-1704-lab",
            "resource": {
               "resourceType": "Observation",
               "id": "smart-observation-1704-lab",
               "meta": {
                  "versionId": "1",
                  "lastUpdated": "2019-08-23T22:11:49.351+00:00",
                  "security": [
                     {
                        "system": "http://smarthealthit.org/security/categories",
                        "code": "laboratory"
                     },
                     {
                        "system": "http://smarthealthit.org/security/users",
                        "code": "Patient/smart-1134281"
                     }
                  ]
               },
               "text": {
                  "status": "generated",
                  "div": "<div xmlns=\"http://www.w3.org/1999/xhtml\">2005-07-05: Platelet Bld Ql Smear = Adequate </div>"
               },
               "extension": [
                  {
                     "url": "http://fhir-registry.smarthealthit.org/StructureDefinition/labs#value-range",
                     "valueString": "['Low', 'Adequate', 'High']"
                  }
               ],
               "status": "final",
               "category": {
                  "coding": [
                     {
                        "system": "http://hl7.org/fhir/observation-category",
                        "code": "laboratory",
                        "display": "Laboratory"
                     }
                  ],
                  "text": "Laboratory"
               },
               "code": {
                  "coding": [
                     {
                        "system": "http://loinc.org",
                        "code": "9317-9",
                        "display": "Platelet Bld Ql Smear"
                     }
                  ],
                  "text": "Platelet Bld Ql Smear"
               },
               "subject": {
                  "reference": "Patient/smart-1134281"
               },
               "effectiveDateTime": "2005-07-05",
               "valueString": "Adequate"
            },
            "search": {
               "mode": "match"
            }
         },
         {
            "fullUrl": "http://165.227.51.4:9002/baseDstu2/Observation/smart-observation-1705-lab",
            "resource": {
               "resourceType": "Observation",
               "id": "smart-observation-1705-lab",
               "meta": {
                  "versionId": "1",
                  "lastUpdated": "2019-08-23T22:11:49.351+00:00",
                  "security": [
                     {
                        "system": "http://smarthealthit.org/security/categories",
                        "code": "laboratory"
                     },
                     {
                        "system": "http://smarthealthit.org/security/users",
                        "code": "Patient/smart-1134281"
                     }
                  ]
               },
               "text": {
                  "status": "generated",
                  "div": "<div xmlns=\"http://www.w3.org/1999/xhtml\">2005-07-05: Calcium SerPl-mCnc = 7.7 mg/dL</div>"
               },
               "status": "final",
               "category": {
                  "coding": [
                     {
                        "system": "http://hl7.org/fhir/observation-category",
                        "code": "laboratory",
                        "display": "Laboratory"
                     }
                  ],
                  "text": "Laboratory"
               },
               "code": {
                  "coding": [
                     {
                        "system": "http://loinc.org",
                        "code": "17861-6",
                        "display": "Calcium SerPl-mCnc"
                     }
                  ],
                  "text": "Calcium SerPl-mCnc"
               },
               "subject": {
                  "reference": "Patient/smart-1134281"
               },
               "effectiveDateTime": "2005-07-05",
               "valueQuantity": {
                  "value": 7.7,
                  "unit": "mg/dL",
                  "system": "http://unitsofmeasure.org"
               },
               "referenceRange": [
                  {
                     "low": {
                        "value": 8.5,
                        "unit": "mg/dL",
                        "system": "http://unitsofmeasure.org",
                        "code": "mg/dL"
                     },
                     "high": {
                        "value": 10.5,
                        "unit": "mg/dL",
                        "system": "http://unitsofmeasure.org",
                        "code": "mg/dL"
                     },
                     "meaning": {
                        "coding": [
                           {
                              "system": "http://hl7.org/fhir/referencerange-meaning",
                              "code": "normal",
                              "display": "Normal Range"
                           }
                        ],
                        "text": "Normal Range"
                     }
                  }
               ]
            },
            "search": {
               "mode": "match"
            }
         },
         {
            "fullUrl": "http://165.227.51.4:9002/baseDstu2/Observation/smart-observation-1706-lab",
            "resource": {
               "resourceType": "Observation",
               "id": "smart-observation-1706-lab",
               "meta": {
                  "versionId": "1",
                  "lastUpdated": "2019-08-23T22:11:49.351+00:00",
                  "security": [
                     {
                        "system": "http://smarthealthit.org/security/users",
                        "code": "Patient/smart-1134281"
                     },
                     {
                        "system": "http://smarthealthit.org/security/categories",
                        "code": "laboratory"
                     }
                  ]
               },
               "text": {
                  "status": "generated",
                  "div": "<div xmlns=\"http://www.w3.org/1999/xhtml\">2005-07-05: Sodium SerPl-sCnc = 137 mmol/L</div>"
               },
               "status": "final",
               "category": {
                  "coding": [
                     {
                        "system": "http://hl7.org/fhir/observation-category",
                        "code": "laboratory",
                        "display": "Laboratory"
                     }
                  ],
                  "text": "Laboratory"
               },
               "code": {
                  "coding": [
                     {
                        "system": "http://loinc.org",
                        "code": "2951-2",
                        "display": "Sodium SerPl-sCnc"
                     }
                  ],
                  "text": "Sodium SerPl-sCnc"
               },
               "subject": {
                  "reference": "Patient/smart-1134281"
               },
               "effectiveDateTime": "2005-07-05",
               "valueQuantity": {
                  "value": 137,
                  "unit": "mmol/L",
                  "system": "http://unitsofmeasure.org"
               },
               "referenceRange": [
                  {
                     "low": {
                        "value": 135,
                        "unit": "mmol/L",
                        "system": "http://unitsofmeasure.org",
                        "code": "mmol/L"
                     },
                     "high": {
                        "value": 145,
                        "unit": "mmol/L",
                        "system": "http://unitsofmeasure.org",
                        "code": "mmol/L"
                     },
                     "meaning": {
                        "coding": [
                           {
                              "system": "http://hl7.org/fhir/referencerange-meaning",
                              "code": "normal",
                              "display": "Normal Range"
                           }
                        ],
                        "text": "Normal Range"
                     }
                  }
               ]
            },
            "search": {
               "mode": "match"
            }
         },
         {
            "fullUrl": "http://165.227.51.4:9002/baseDstu2/Observation/smart-observation-1707-lab",
            "resource": {
               "resourceType": "Observation",
               "id": "smart-observation-1707-lab",
               "meta": {
                  "versionId": "1",
                  "lastUpdated": "2019-08-23T22:11:49.351+00:00",
                  "security": [
                     {
                        "system": "http://smarthealthit.org/security/users",
                        "code": "Patient/smart-1134281"
                     },
                     {
                        "system": "http://smarthealthit.org/security/categories",
                        "code": "laboratory"
                     }
                  ]
               },
               "text": {
                  "status": "generated",
                  "div": "<div xmlns=\"http://www.w3.org/1999/xhtml\">2005-07-05: Creat SerPl-mCnc = 1 mg/dL</div>"
               },
               "status": "final",
               "category": {
                  "coding": [
                     {
                        "system": "http://hl7.org/fhir/observation-category",
                        "code": "laboratory",
                        "display": "Laboratory"
                     }
                  ],
                  "text": "Laboratory"
               },
               "code": {
                  "coding": [
                     {
                        "system": "http://loinc.org",
                        "code": "2160-0",
                        "display": "Creat SerPl-mCnc"
                     }
                  ],
                  "text": "Creat SerPl-mCnc"
               },
               "subject": {
                  "reference": "Patient/smart-1134281"
               },
               "effectiveDateTime": "2005-07-05",
               "valueQuantity": {
                  "value": 1,
                  "unit": "mg/dL",
                  "system": "http://unitsofmeasure.org"
               },
               "referenceRange": [
                  {
                     "low": {
                        "value": 0.2,
                        "unit": "mg/dL",
                        "system": "http://unitsofmeasure.org",
                        "code": "mg/dL"
                     },
                     "high": {
                        "value": 0.6,
                        "unit": "mg/dL",
                        "system": "http://unitsofmeasure.org",
                        "code": "mg/dL"
                     },
                     "meaning": {
                        "coding": [
                           {
                              "system": "http://hl7.org/fhir/referencerange-meaning",
                              "code": "normal",
                              "display": "Normal Range"
                           }
                        ],
                        "text": "Normal Range"
                     }
                  }
               ]
            },
            "search": {
               "mode": "match"
            }
         },
         {
            "fullUrl": "http://165.227.51.4:9002/baseDstu2/Observation/smart-observation-1708-lab",
            "resource": {
               "resourceType": "Observation",
               "id": "smart-observation-1708-lab",
               "meta": {
                  "versionId": "1",
                  "lastUpdated": "2019-08-23T22:11:49.351+00:00",
                  "security": [
                     {
                        "system": "http://smarthealthit.org/security/categories",
                        "code": "laboratory"
                     },
                     {
                        "system": "http://smarthealthit.org/security/users",
                        "code": "Patient/smart-1134281"
                     }
                  ]
               },
               "text": {
                  "status": "generated",
                  "div": "<div xmlns=\"http://www.w3.org/1999/xhtml\">2005-07-05: Potassium SerPl-sCnc = 5.4 mmol/L</div>"
               },
               "status": "final",
               "category": {
                  "coding": [
                     {
                        "system": "http://hl7.org/fhir/observation-category",
                        "code": "laboratory",
                        "display": "Laboratory"
                     }
                  ],
                  "text": "Laboratory"
               },
               "code": {
                  "coding": [
                     {
                        "system": "http://loinc.org",
                        "code": "2823-3",
                        "display": "Potassium SerPl-sCnc"
                     }
                  ],
                  "text": "Potassium SerPl-sCnc"
               },
               "subject": {
                  "reference": "Patient/smart-1134281"
               },
               "effectiveDateTime": "2005-07-05",
               "valueQuantity": {
                  "value": 5.4,
                  "unit": "mmol/L",
                  "system": "http://unitsofmeasure.org"
               },
               "referenceRange": [
                  {
                     "low": {
                        "value": 3.5,
                        "unit": "mmol/L",
                        "system": "http://unitsofmeasure.org",
                        "code": "mmol/L"
                     },
                     "high": {
                        "value": 5.5,
                        "unit": "mmol/L",
                        "system": "http://unitsofmeasure.org",
                        "code": "mmol/L"
                     },
                     "meaning": {
                        "coding": [
                           {
                              "system": "http://hl7.org/fhir/referencerange-meaning",
                              "code": "normal",
                              "display": "Normal Range"
                           }
                        ],
                        "text": "Normal Range"
                     }
                  }
               ]
            },
            "search": {
               "mode": "match"
            }
         },
         {
            "fullUrl": "http://165.227.51.4:9002/baseDstu2/Observation/smart-observation-1709-lab",
            "resource": {
               "resourceType": "Observation",
               "id": "smart-observation-1709-lab",
               "meta": {
                  "versionId": "1",
                  "lastUpdated": "2019-08-23T22:11:49.351+00:00",
                  "security": [
                     {
                        "system": "http://smarthealthit.org/security/users",
                        "code": "Patient/smart-1134281"
                     },
                     {
                        "system": "http://smarthealthit.org/security/categories",
                        "code": "laboratory"
                     }
                  ]
               },
               "text": {
                  "status": "generated",
                  "div": "<div xmlns=\"http://www.w3.org/1999/xhtml\">2005-07-05: Chloride SerPl-sCnc = 105 mmol/L</div>"
               },
               "status": "final",
               "category": {
                  "coding": [
                     {
                        "system": "http://hl7.org/fhir/observation-category",
                        "code": "laboratory",
                        "display": "Laboratory"
                     }
                  ],
                  "text": "Laboratory"
               },
               "code": {
                  "coding": [
                     {
                        "system": "http://loinc.org",
                        "code": "2075-0",
                        "display": "Chloride SerPl-sCnc"
                     }
                  ],
                  "text": "Chloride SerPl-sCnc"
               },
               "subject": {
                  "reference": "Patient/smart-1134281"
               },
               "effectiveDateTime": "2005-07-05",
               "valueQuantity": {
                  "value": 105,
                  "unit": "mmol/L",
                  "system": "http://unitsofmeasure.org"
               },
               "referenceRange": [
                  {
                     "low": {
                        "value": 95,
                        "unit": "mmol/L",
                        "system": "http://unitsofmeasure.org",
                        "code": "mmol/L"
                     },
                     "high": {
                        "value": 105,
                        "unit": "mmol/L",
                        "system": "http://unitsofmeasure.org",
                        "code": "mmol/L"
                     },
                     "meaning": {
                        "coding": [
                           {
                              "system": "http://hl7.org/fhir/referencerange-meaning",
                              "code": "normal",
                              "display": "Normal Range"
                           }
                        ],
                        "text": "Normal Range"
                     }
                  }
               ]
            },
            "search": {
               "mode": "match"
            }
         },
         {
            "fullUrl": "http://165.227.51.4:9002/baseDstu2/Observation/smart-observation-1710-lab",
            "resource": {
               "resourceType": "Observation",
               "id": "smart-observation-1710-lab",
               "meta": {
                  "versionId": "1",
                  "lastUpdated": "2019-08-23T22:11:49.351+00:00",
                  "security": [
                     {
                        "system": "http://smarthealthit.org/security/users",
                        "code": "Patient/smart-1134281"
                     },
                     {
                        "system": "http://smarthealthit.org/security/categories",
                        "code": "laboratory"
                     }
                  ]
               },
               "text": {
                  "status": "generated",
                  "div": "<div xmlns=\"http://www.w3.org/1999/xhtml\">2005-07-05: CO2 SerPl-sCnc = 24 mmol/L</div>"
               },
               "status": "final",
               "category": {
                  "coding": [
                     {
                        "system": "http://hl7.org/fhir/observation-category",
                        "code": "laboratory",
                        "display": "Laboratory"
                     }
                  ],
                  "text": "Laboratory"
               },
               "code": {
                  "coding": [
                     {
                        "system": "http://loinc.org",
                        "code": "2028-9",
                        "display": "CO2 SerPl-sCnc"
                     }
                  ],
                  "text": "CO2 SerPl-sCnc"
               },
               "subject": {
                  "reference": "Patient/smart-1134281"
               },
               "effectiveDateTime": "2005-07-05",
               "valueQuantity": {
                  "value": 24,
                  "unit": "mmol/L",
                  "system": "http://unitsofmeasure.org"
               },
               "referenceRange": [
                  {
                     "low": {
                        "value": 22,
                        "unit": "mmol/L",
                        "system": "http://unitsofmeasure.org",
                        "code": "mmol/L"
                     },
                     "high": {
                        "value": 29,
                        "unit": "mmol/L",
                        "system": "http://unitsofmeasure.org",
                        "code": "mmol/L"
                     },
                     "meaning": {
                        "coding": [
                           {
                              "system": "http://hl7.org/fhir/referencerange-meaning",
                              "code": "normal",
                              "display": "Normal Range"
                           }
                        ],
                        "text": "Normal Range"
                     }
                  }
               ]
            },
            "search": {
               "mode": "match"
            }
         },
         {
            "fullUrl": "http://165.227.51.4:9002/baseDstu2/Observation/smart-observation-1711-lab",
            "resource": {
               "resourceType": "Observation",
               "id": "smart-observation-1711-lab",
               "meta": {
                  "versionId": "1",
                  "lastUpdated": "2019-08-23T22:11:49.351+00:00",
                  "security": [
                     {
                        "system": "http://smarthealthit.org/security/categories",
                        "code": "laboratory"
                     },
                     {
                        "system": "http://smarthealthit.org/security/users",
                        "code": "Patient/smart-1134281"
                     }
                  ]
               },
               "text": {
                  "status": "generated",
                  "div": "<div xmlns=\"http://www.w3.org/1999/xhtml\">2005-07-05: Myelocytes NFr Bld = 1 %</div>"
               },
               "status": "final",
               "category": {
                  "coding": [
                     {
                        "system": "http://hl7.org/fhir/observation-category",
                        "code": "laboratory",
                        "display": "Laboratory"
                     }
                  ],
                  "text": "Laboratory"
               },
               "code": {
                  "coding": [
                     {
                        "system": "http://loinc.org",
                        "code": "26498-6",
                        "display": "Myelocytes NFr Bld"
                     }
                  ],
                  "text": "Myelocytes NFr Bld"
               },
               "subject": {
                  "reference": "Patient/smart-1134281"
               },
               "effectiveDateTime": "2005-07-05",
               "valueQuantity": {
                  "value": 1,
                  "unit": "%",
                  "system": "http://unitsofmeasure.org"
               },
               "referenceRange": [
                  {
                     "low": {
                        "value": 0,
                        "unit": "%",
                        "system": "http://unitsofmeasure.org",
                        "code": "%"
                     },
                     "high": {
                        "value": 0,
                        "unit": "%",
                        "system": "http://unitsofmeasure.org",
                        "code": "%"
                     },
                     "meaning": {
                        "coding": [
                           {
                              "system": "http://hl7.org/fhir/referencerange-meaning",
                              "code": "normal",
                              "display": "Normal Range"
                           }
                        ],
                        "text": "Normal Range"
                     }
                  }
               ]
            },
            "search": {
               "mode": "match"
            }
         },
         {
            "fullUrl": "http://165.227.51.4:9002/baseDstu2/Observation/smart-observation-1712-lab",
            "resource": {
               "resourceType": "Observation",
               "id": "smart-observation-1712-lab",
               "meta": {
                  "versionId": "1",
                  "lastUpdated": "2019-08-23T22:11:49.351+00:00",
                  "security": [
                     {
                        "system": "http://smarthealthit.org/security/users",
                        "code": "Patient/smart-1134281"
                     },
                     {
                        "system": "http://smarthealthit.org/security/categories",
                        "code": "laboratory"
                     }
                  ]
               },
               "text": {
                  "status": "generated",
                  "div": "<div xmlns=\"http://www.w3.org/1999/xhtml\">2005-07-05: Neuts Band NFr Bld = 2 %</div>"
               },
               "status": "final",
               "category": {
                  "coding": [
                     {
                        "system": "http://hl7.org/fhir/observation-category",
                        "code": "laboratory",
                        "display": "Laboratory"
                     }
                  ],
                  "text": "Laboratory"
               },
               "code": {
                  "coding": [
                     {
                        "system": "http://loinc.org",
                        "code": "26508-2",
                        "display": "Neuts Band NFr Bld"
                     }
                  ],
                  "text": "Neuts Band NFr Bld"
               },
               "subject": {
                  "reference": "Patient/smart-1134281"
               },
               "effectiveDateTime": "2005-07-05",
               "valueQuantity": {
                  "value": 2,
                  "unit": "%",
                  "system": "http://unitsofmeasure.org"
               },
               "referenceRange": [
                  {
                     "low": {
                        "value": 4,
                        "unit": "%",
                        "system": "http://unitsofmeasure.org",
                        "code": "%"
                     },
                     "high": {
                        "value": 14,
                        "unit": "%",
                        "system": "http://unitsofmeasure.org",
                        "code": "%"
                     },
                     "meaning": {
                        "coding": [
                           {
                              "system": "http://hl7.org/fhir/referencerange-meaning",
                              "code": "normal",
                              "display": "Normal Range"
                           }
                        ],
                        "text": "Normal Range"
                     }
                  }
               ]
            },
            "search": {
               "mode": "match"
            }
         },
         {
            "fullUrl": "http://165.227.51.4:9002/baseDstu2/Observation/smart-observation-1713-lab",
            "resource": {
               "resourceType": "Observation",
               "id": "smart-observation-1713-lab",
               "meta": {
                  "versionId": "1",
                  "lastUpdated": "2019-08-23T22:11:49.351+00:00",
                  "security": [
                     {
                        "system": "http://smarthealthit.org/security/users",
                        "code": "Patient/smart-1134281"
                     },
                     {
                        "system": "http://smarthealthit.org/security/categories",
                        "code": "laboratory"
                     }
                  ]
               },
               "text": {
                  "status": "generated",
                  "div": "<div xmlns=\"http://www.w3.org/1999/xhtml\">2005-07-05: Lymphocytes NFr Bld = 43 %</div>"
               },
               "status": "final",
               "category": {
                  "coding": [
                     {
                        "system": "http://hl7.org/fhir/observation-category",
                        "code": "laboratory",
                        "display": "Laboratory"
                     }
                  ],
                  "text": "Laboratory"
               },
               "code": {
                  "coding": [
                     {
                        "system": "http://loinc.org",
                        "code": "26478-8",
                        "display": "Lymphocytes NFr Bld"
                     }
                  ],
                  "text": "Lymphocytes NFr Bld"
               },
               "subject": {
                  "reference": "Patient/smart-1134281"
               },
               "effectiveDateTime": "2005-07-05",
               "valueQuantity": {
                  "value": 43,
                  "unit": "%",
                  "system": "http://unitsofmeasure.org"
               },
               "referenceRange": [
                  {
                     "low": {
                        "value": 18,
                        "unit": "%",
                        "system": "http://unitsofmeasure.org",
                        "code": "%"
                     },
                     "high": {
                        "value": 38,
                        "unit": "%",
                        "system": "http://unitsofmeasure.org",
                        "code": "%"
                     },
                     "meaning": {
                        "coding": [
                           {
                              "system": "http://hl7.org/fhir/referencerange-meaning",
                              "code": "normal",
                              "display": "Normal Range"
                           }
                        ],
                        "text": "Normal Range"
                     }
                  }
               ]
            },
            "search": {
               "mode": "match"
            }
         },
         {
            "fullUrl": "http://165.227.51.4:9002/baseDstu2/Observation/smart-observation-1714-lab",
            "resource": {
               "resourceType": "Observation",
               "id": "smart-observation-1714-lab",
               "meta": {
                  "versionId": "1",
                  "lastUpdated": "2019-08-23T22:11:49.351+00:00",
                  "security": [
                     {
                        "system": "http://smarthealthit.org/security/categories",
                        "code": "laboratory"
                     },
                     {
                        "system": "http://smarthealthit.org/security/users",
                        "code": "Patient/smart-1134281"
                     }
                  ]
               },
               "text": {
                  "status": "generated",
                  "div": "<div xmlns=\"http://www.w3.org/1999/xhtml\">2005-07-05: Monocytes NFr Bld = 8 %</div>"
               },
               "status": "final",
               "category": {
                  "coding": [
                     {
                        "system": "http://hl7.org/fhir/observation-category",
                        "code": "laboratory",
                        "display": "Laboratory"
                     }
                  ],
                  "text": "Laboratory"
               },
               "code": {
                  "coding": [
                     {
                        "system": "http://loinc.org",
                        "code": "26485-3",
                        "display": "Monocytes NFr Bld"
                     }
                  ],
                  "text": "Monocytes NFr Bld"
               },
               "subject": {
                  "reference": "Patient/smart-1134281"
               },
               "effectiveDateTime": "2005-07-05",
               "valueQuantity": {
                  "value": 8,
                  "unit": "%",
                  "system": "http://unitsofmeasure.org"
               },
               "referenceRange": [
                  {
                     "low": {
                        "value": 1,
                        "unit": "%",
                        "system": "http://unitsofmeasure.org",
                        "code": "%"
                     },
                     "high": {
                        "value": 12,
                        "unit": "%",
                        "system": "http://unitsofmeasure.org",
                        "code": "%"
                     },
                     "meaning": {
                        "coding": [
                           {
                              "system": "http://hl7.org/fhir/referencerange-meaning",
                              "code": "normal",
                              "display": "Normal Range"
                           }
                        ],
                        "text": "Normal Range"
                     }
                  }
               ]
            },
            "search": {
               "mode": "match"
            }
         },
         {
            "fullUrl": "http://165.227.51.4:9002/baseDstu2/Observation/smart-observation-1715-lab",
            "resource": {
               "resourceType": "Observation",
               "id": "smart-observation-1715-lab",
               "meta": {
                  "versionId": "1",
                  "lastUpdated": "2019-08-23T22:11:49.351+00:00",
                  "security": [
                     {
                        "system": "http://smarthealthit.org/security/users",
                        "code": "Patient/smart-1134281"
                     },
                     {
                        "system": "http://smarthealthit.org/security/categories",
                        "code": "laboratory"
                     }
                  ]
               },
               "text": {
                  "status": "generated",
                  "div": "<div xmlns=\"http://www.w3.org/1999/xhtml\">2005-07-05: Eosinophil NFr Bld = 3 %</div>"
               },
               "status": "final",
               "category": {
                  "coding": [
                     {
                        "system": "http://hl7.org/fhir/observation-category",
                        "code": "laboratory",
                        "display": "Laboratory"
                     }
                  ],
                  "text": "Laboratory"
               },
               "code": {
                  "coding": [
                     {
                        "system": "http://loinc.org",
                        "code": "26450-7",
                        "display": "Eosinophil NFr Bld"
                     }
                  ],
                  "text": "Eosinophil NFr Bld"
               },
               "subject": {
                  "reference": "Patient/smart-1134281"
               },
               "effectiveDateTime": "2005-07-05",
               "valueQuantity": {
                  "value": 3,
                  "unit": "%",
                  "system": "http://unitsofmeasure.org"
               },
               "referenceRange": [
                  {
                     "low": {
                        "value": 0,
                        "unit": "%",
                        "system": "http://unitsofmeasure.org",
                        "code": "%"
                     },
                     "high": {
                        "value": 4,
                        "unit": "%",
                        "system": "http://unitsofmeasure.org",
                        "code": "%"
                     },
                     "meaning": {
                        "coding": [
                           {
                              "system": "http://hl7.org/fhir/referencerange-meaning",
                              "code": "normal",
                              "display": "Normal Range"
                           }
                        ],
                        "text": "Normal Range"
                     }
                  }
               ]
            },
            "search": {
               "mode": "match"
            }
         },
         {
            "fullUrl": "http://165.227.51.4:9002/baseDstu2/Observation/smart-observation-1716-lab",
            "resource": {
               "resourceType": "Observation",
               "id": "smart-observation-1716-lab",
               "meta": {
                  "versionId": "1",
                  "lastUpdated": "2019-08-23T22:11:49.351+00:00",
                  "security": [
                     {
                        "system": "http://smarthealthit.org/security/users",
                        "code": "Patient/smart-1134281"
                     },
                     {
                        "system": "http://smarthealthit.org/security/categories",
                        "code": "laboratory"
                     }
                  ]
               },
               "text": {
                  "status": "generated",
                  "div": "<div xmlns=\"http://www.w3.org/1999/xhtml\">2005-07-05: Basophils NFr Bld = 0 %</div>"
               },
               "status": "final",
               "category": {
                  "coding": [
                     {
                        "system": "http://hl7.org/fhir/observation-category",
                        "code": "laboratory",
                        "display": "Laboratory"
                     }
                  ],
                  "text": "Laboratory"
               },
               "code": {
                  "coding": [
                     {
                        "system": "http://loinc.org",
                        "code": "30180-4",
                        "display": "Basophils NFr Bld"
                     }
                  ],
                  "text": "Basophils NFr Bld"
               },
               "subject": {
                  "reference": "Patient/smart-1134281"
               },
               "effectiveDateTime": "2005-07-05",
               "valueQuantity": {
                  "value": 0,
                  "unit": "%",
                  "system": "http://unitsofmeasure.org"
               },
               "referenceRange": [
                  {
                     "low": {
                        "value": 0,
                        "unit": "%",
                        "system": "http://unitsofmeasure.org",
                        "code": "%"
                     },
                     "high": {
                        "value": 2,
                        "unit": "%",
                        "system": "http://unitsofmeasure.org",
                        "code": "%"
                     },
                     "meaning": {
                        "coding": [
                           {
                              "system": "http://hl7.org/fhir/referencerange-meaning",
                              "code": "normal",
                              "display": "Normal Range"
                           }
                        ],
                        "text": "Normal Range"
                     }
                  }
               ]
            },
            "search": {
               "mode": "match"
            }
         },
         {
            "fullUrl": "http://165.227.51.4:9002/baseDstu2/Observation/smart-observation-1717-lab",
            "resource": {
               "resourceType": "Observation",
               "id": "smart-observation-1717-lab",
               "meta": {
                  "versionId": "1",
                  "lastUpdated": "2019-08-23T22:11:49.351+00:00",
                  "security": [
                     {
                        "system": "http://smarthealthit.org/security/categories",
                        "code": "laboratory"
                     },
                     {
                        "system": "http://smarthealthit.org/security/users",
                        "code": "Patient/smart-1134281"
                     }
                  ]
               },
               "text": {
                  "status": "generated",
                  "div": "<div xmlns=\"http://www.w3.org/1999/xhtml\">2005-07-05: Hgb Bld-mCnc = 17 g/dL</div>"
               },
               "status": "final",
               "category": {
                  "coding": [
                     {
                        "system": "http://hl7.org/fhir/observation-category",
                        "code": "laboratory",
                        "display": "Laboratory"
                     }
                  ],
                  "text": "Laboratory"
               },
               "code": {
                  "coding": [
                     {
                        "system": "http://loinc.org",
                        "code": "718-7",
                        "display": "Hgb Bld-mCnc"
                     }
                  ],
                  "text": "Hgb Bld-mCnc"
               },
               "subject": {
                  "reference": "Patient/smart-1134281"
               },
               "effectiveDateTime": "2005-07-05",
               "valueQuantity": {
                  "value": 17,
                  "unit": "g/dL",
                  "system": "http://unitsofmeasure.org"
               },
               "referenceRange": [
                  {
                     "low": {
                        "value": 16.5,
                        "unit": "g/dL",
                        "system": "http://unitsofmeasure.org",
                        "code": "g/dL"
                     },
                     "high": {
                        "value": 21.5,
                        "unit": "g/dL",
                        "system": "http://unitsofmeasure.org",
                        "code": "g/dL"
                     },
                     "meaning": {
                        "coding": [
                           {
                              "system": "http://hl7.org/fhir/referencerange-meaning",
                              "code": "normal",
                              "display": "Normal Range"
                           }
                        ],
                        "text": "Normal Range"
                     }
                  }
               ]
            },
            "search": {
               "mode": "match"
            }
         },
         {
            "fullUrl": "http://165.227.51.4:9002/baseDstu2/Observation/smart-observation-1718-lab",
            "resource": {
               "resourceType": "Observation",
               "id": "smart-observation-1718-lab",
               "meta": {
                  "versionId": "1",
                  "lastUpdated": "2019-08-23T22:11:49.351+00:00",
                  "security": [
                     {
                        "system": "http://smarthealthit.org/security/users",
                        "code": "Patient/smart-1134281"
                     },
                     {
                        "system": "http://smarthealthit.org/security/categories",
                        "code": "laboratory"
                     }
                  ]
               },
               "text": {
                  "status": "generated",
                  "div": "<div xmlns=\"http://www.w3.org/1999/xhtml\">2005-07-05: Anion Gap3 SerPl-sCnc = 8 mmol/L</div>"
               },
               "status": "final",
               "category": {
                  "coding": [
                     {
                        "system": "http://hl7.org/fhir/observation-category",
                        "code": "laboratory",
                        "display": "Laboratory"
                     }
                  ],
                  "text": "Laboratory"
               },
               "code": {
                  "coding": [
                     {
                        "system": "http://loinc.org",
                        "code": "10466-1",
                        "display": "Anion Gap3 SerPl-sCnc"
                     }
                  ],
                  "text": "Anion Gap3 SerPl-sCnc"
               },
               "subject": {
                  "reference": "Patient/smart-1134281"
               },
               "effectiveDateTime": "2005-07-05",
               "valueQuantity": {
                  "value": 8,
                  "unit": "mmol/L",
                  "system": "http://unitsofmeasure.org"
               },
               "referenceRange": [
                  {
                     "low": {
                        "value": 0,
                        "unit": "mmol/L",
                        "system": "http://unitsofmeasure.org",
                        "code": "mmol/L"
                     },
                     "high": {
                        "value": 0,
                        "unit": "mmol/L",
                        "system": "http://unitsofmeasure.org",
                        "code": "mmol/L"
                     },
                     "meaning": {
                        "coding": [
                           {
                              "system": "http://hl7.org/fhir/referencerange-meaning",
                              "code": "normal",
                              "display": "Normal Range"
                           }
                        ],
                        "text": "Normal Range"
                     }
                  }
               ]
            },
            "search": {
               "mode": "match"
            }
         },
         {
            "fullUrl": "http://165.227.51.4:9002/baseDstu2/Observation/smart-observation-1719-lab",
            "resource": {
               "resourceType": "Observation",
               "id": "smart-observation-1719-lab",
               "meta": {
                  "versionId": "1",
                  "lastUpdated": "2019-08-23T22:11:49.351+00:00",
                  "security": [
                     {
                        "system": "http://smarthealthit.org/security/users",
                        "code": "Patient/smart-1134281"
                     },
                     {
                        "system": "http://smarthealthit.org/security/categories",
                        "code": "laboratory"
                     }
                  ]
               },
               "text": {
                  "status": "generated",
                  "div": "<div xmlns=\"http://www.w3.org/1999/xhtml\">2005-07-05: PMV Bld = 7.8 fL</div>"
               },
               "status": "final",
               "category": {
                  "coding": [
                     {
                        "system": "http://hl7.org/fhir/observation-category",
                        "code": "laboratory",
                        "display": "Laboratory"
                     }
                  ],
                  "text": "Laboratory"
               },
               "code": {
                  "coding": [
                     {
                        "system": "http://loinc.org",
                        "code": "28542-9",
                        "display": "PMV Bld"
                     }
                  ],
                  "text": "PMV Bld"
               },
               "subject": {
                  "reference": "Patient/smart-1134281"
               },
               "effectiveDateTime": "2005-07-05",
               "valueQuantity": {
                  "value": 7.8,
                  "unit": "fL",
                  "system": "http://unitsofmeasure.org"
               },
               "referenceRange": [
                  {
                     "low": {
                        "value": 6.3,
                        "unit": "fL",
                        "system": "http://unitsofmeasure.org",
                        "code": "fL"
                     },
                     "high": {
                        "value": 9.6,
                        "unit": "fL",
                        "system": "http://unitsofmeasure.org",
                        "code": "fL"
                     },
                     "meaning": {
                        "coding": [
                           {
                              "system": "http://hl7.org/fhir/referencerange-meaning",
                              "code": "normal",
                              "display": "Normal Range"
                           }
                        ],
                        "text": "Normal Range"
                     }
                  }
               ]
            },
            "search": {
               "mode": "match"
            }
         },
         {
            "fullUrl": "http://165.227.51.4:9002/baseDstu2/Observation/smart-observation-1720-lab",
            "resource": {
               "resourceType": "Observation",
               "id": "smart-observation-1720-lab",
               "meta": {
                  "versionId": "1",
                  "lastUpdated": "2019-08-23T22:11:49.351+00:00",
                  "security": [
                     {
                        "system": "http://smarthealthit.org/security/categories",
                        "code": "laboratory"
                     },
                     {
                        "system": "http://smarthealthit.org/security/users",
                        "code": "Patient/smart-1134281"
                     }
                  ]
               },
               "text": {
                  "status": "generated",
                  "div": "<div xmlns=\"http://www.w3.org/1999/xhtml\">2005-07-05: RDW RBC-Rto = 16.8 %</div>"
               },
               "status": "final",
               "category": {
                  "coding": [
                     {
                        "system": "http://hl7.org/fhir/observation-category",
                        "code": "laboratory",
                        "display": "Laboratory"
                     }
                  ],
                  "text": "Laboratory"
               },
               "code": {
                  "coding": [
                     {
                        "system": "http://loinc.org",
                        "code": "30385-9",
                        "display": "RDW RBC-Rto"
                     }
                  ],
                  "text": "RDW RBC-Rto"
               },
               "subject": {
                  "reference": "Patient/smart-1134281"
               },
               "effectiveDateTime": "2005-07-05",
               "valueQuantity": {
                  "value": 16.8,
                  "unit": "%",
                  "system": "http://unitsofmeasure.org"
               },
               "referenceRange": [
                  {
                     "low": {
                        "value": 11.5,
                        "unit": "%",
                        "system": "http://unitsofmeasure.org",
                        "code": "%"
                     },
                     "high": {
                        "value": 14.5,
                        "unit": "%",
                        "system": "http://unitsofmeasure.org",
                        "code": "%"
                     },
                     "meaning": {
                        "coding": [
                           {
                              "system": "http://hl7.org/fhir/referencerange-meaning",
                              "code": "normal",
                              "display": "Normal Range"
                           }
                        ],
                        "text": "Normal Range"
                     }
                  }
               ]
            },
            "search": {
               "mode": "match"
            }
         },
         {
            "fullUrl": "http://165.227.51.4:9002/baseDstu2/Observation/smart-observation-1721-lab",
            "resource": {
               "resourceType": "Observation",
               "id": "smart-observation-1721-lab",
               "meta": {
                  "versionId": "1",
                  "lastUpdated": "2019-08-23T22:11:49.351+00:00",
                  "security": [
                     {
                        "system": "http://smarthealthit.org/security/categories",
                        "code": "laboratory"
                     },
                     {
                        "system": "http://smarthealthit.org/security/users",
                        "code": "Patient/smart-1134281"
                     }
                  ]
               },
               "text": {
                  "status": "generated",
                  "div": "<div xmlns=\"http://www.w3.org/1999/xhtml\">2005-07-05: nRBC/100 WBC Bld-Rto = 5 #/100 WBC</div>"
               },
               "status": "final",
               "category": {
                  "coding": [
                     {
                        "system": "http://hl7.org/fhir/observation-category",
                        "code": "laboratory",
                        "display": "Laboratory"
                     }
                  ],
                  "text": "Laboratory"
               },
               "code": {
                  "coding": [
                     {
                        "system": "http://loinc.org",
                        "code": "19048-8",
                        "display": "nRBC/100 WBC Bld-Rto"
                     }
                  ],
                  "text": "nRBC/100 WBC Bld-Rto"
               },
               "subject": {
                  "reference": "Patient/smart-1134281"
               },
               "effectiveDateTime": "2005-07-05",
               "valueQuantity": {
                  "value": 5,
                  "unit": "#/100 WBC",
                  "system": "http://unitsofmeasure.org"
               },
               "referenceRange": [
                  {
                     "low": {
                        "value": 0,
                        "unit": "#/100 WBC",
                        "system": "http://unitsofmeasure.org",
                        "code": "#/100 WBC"
                     },
                     "high": {
                        "value": 24,
                        "unit": "#/100 WBC",
                        "system": "http://unitsofmeasure.org",
                        "code": "#/100 WBC"
                     },
                     "meaning": {
                        "coding": [
                           {
                              "system": "http://hl7.org/fhir/referencerange-meaning",
                              "code": "normal",
                              "display": "Normal Range"
                           }
                        ],
                        "text": "Normal Range"
                     }
                  }
               ]
            },
            "search": {
               "mode": "match"
            }
         },
         {
            "fullUrl": "http://165.227.51.4:9002/baseDstu2/Observation/smart-observation-1722-lab",
            "resource": {
               "resourceType": "Observation",
               "id": "smart-observation-1722-lab",
               "meta": {
                  "versionId": "1",
                  "lastUpdated": "2019-08-23T22:11:49.351+00:00",
                  "security": [
                     {
                        "system": "http://smarthealthit.org/security/users",
                        "code": "Patient/smart-1134281"
                     },
                     {
                        "system": "http://smarthealthit.org/security/categories",
                        "code": "laboratory"
                     }
                  ]
               },
               "text": {
                  "status": "generated",
                  "div": "<div xmlns=\"http://www.w3.org/1999/xhtml\">2005-07-05: Neutrophils NFr Bld Auto = 40 %</div>"
               },
               "status": "final",
               "category": {
                  "coding": [
                     {
                        "system": "http://hl7.org/fhir/observation-category",
                        "code": "laboratory",
                        "display": "Laboratory"
                     }
                  ],
                  "text": "Laboratory"
               },
               "code": {
                  "coding": [
                     {
                        "system": "http://loinc.org",
                        "code": "770-8",
                        "display": "Neutrophils NFr Bld Auto"
                     }
                  ],
                  "text": "Neutrophils NFr Bld Auto"
               },
               "subject": {
                  "reference": "Patient/smart-1134281"
               },
               "effectiveDateTime": "2005-07-05",
               "valueQuantity": {
                  "value": 40,
                  "unit": "%",
                  "system": "http://unitsofmeasure.org"
               },
               "referenceRange": [
                  {
                     "low": {
                        "value": 37,
                        "unit": "%",
                        "system": "http://unitsofmeasure.org",
                        "code": "%"
                     },
                     "high": {
                        "value": 67,
                        "unit": "%",
                        "system": "http://unitsofmeasure.org",
                        "code": "%"
                     },
                     "meaning": {
                        "coding": [
                           {
                              "system": "http://hl7.org/fhir/referencerange-meaning",
                              "code": "normal",
                              "display": "Normal Range"
                           }
                        ],
                        "text": "Normal Range"
                     }
                  }
               ]
            },
            "search": {
               "mode": "match"
            }
         },
         {
            "fullUrl": "http://165.227.51.4:9002/baseDstu2/Observation/smart-observation-1723-lab",
            "resource": {
               "resourceType": "Observation",
               "id": "smart-observation-1723-lab",
               "meta": {
                  "versionId": "1",
                  "lastUpdated": "2019-08-23T22:11:49.351+00:00",
                  "security": [
                     {
                        "system": "http://smarthealthit.org/security/users",
                        "code": "Patient/smart-1134281"
                     },
                     {
                        "system": "http://smarthealthit.org/security/categories",
                        "code": "laboratory"
                     }
                  ]
               },
               "text": {
                  "status": "generated",
                  "div": "<div xmlns=\"http://www.w3.org/1999/xhtml\">2005-07-05: RBC morph Bld = Normal </div>"
               },
               "status": "final",
               "category": {
                  "coding": [
                     {
                        "system": "http://hl7.org/fhir/observation-category",
                        "code": "laboratory",
                        "display": "Laboratory"
                     }
                  ],
                  "text": "Laboratory"
               },
               "code": {
                  "coding": [
                     {
                        "system": "http://loinc.org",
                        "code": "6742-1",
                        "display": "RBC morph Bld"
                     }
                  ],
                  "text": "RBC morph Bld"
               },
               "subject": {
                  "reference": "Patient/smart-1134281"
               },
               "effectiveDateTime": "2005-07-05",
               "valueString": "Normal"
            },
            "search": {
               "mode": "match"
            }
         },
         {
            "fullUrl": "http://165.227.51.4:9002/baseDstu2/Observation/smart-observation-1724-lab",
            "resource": {
               "resourceType": "Observation",
               "id": "smart-observation-1724-lab",
               "meta": {
                  "versionId": "1",
                  "lastUpdated": "2019-08-23T22:11:49.351+00:00",
                  "security": [
                     {
                        "system": "http://smarthealthit.org/security/categories",
                        "code": "laboratory"
                     },
                     {
                        "system": "http://smarthealthit.org/security/users",
                        "code": "Patient/smart-1134281"
                     }
                  ]
               },
               "text": {
                  "status": "generated",
                  "div": "<div xmlns=\"http://www.w3.org/1999/xhtml\">2005-07-05: Glucose Bld-mCnc = 89 mg/dL</div>"
               },
               "status": "final",
               "category": {
                  "coding": [
                     {
                        "system": "http://hl7.org/fhir/observation-category",
                        "code": "laboratory",
                        "display": "Laboratory"
                     }
                  ],
                  "text": "Laboratory"
               },
               "code": {
                  "coding": [
                     {
                        "system": "http://loinc.org",
                        "code": "2339-0",
                        "display": "Glucose Bld-mCnc"
                     }
                  ],
                  "text": "Glucose Bld-mCnc"
               },
               "subject": {
                  "reference": "Patient/smart-1134281"
               },
               "effectiveDateTime": "2005-07-05",
               "valueQuantity": {
                  "value": 89,
                  "unit": "mg/dL",
                  "system": "http://unitsofmeasure.org"
               },
               "referenceRange": [
                  {
                     "low": {
                        "value": 40,
                        "unit": "mg/dL",
                        "system": "http://unitsofmeasure.org",
                        "code": "mg/dL"
                     },
                     "high": {
                        "value": 109,
                        "unit": "mg/dL",
                        "system": "http://unitsofmeasure.org",
                        "code": "mg/dL"
                     },
                     "meaning": {
                        "coding": [
                           {
                              "system": "http://hl7.org/fhir/referencerange-meaning",
                              "code": "normal",
                              "display": "Normal Range"
                           }
                        ],
                        "text": "Normal Range"
                     }
                  }
               ]
            },
            "search": {
               "mode": "match"
            }
         },
         {
            "fullUrl": "http://165.227.51.4:9002/baseDstu2/Observation/smart-observation-1725-lab",
            "resource": {
               "resourceType": "Observation",
               "id": "smart-observation-1725-lab",
               "meta": {
                  "versionId": "1",
                  "lastUpdated": "2019-08-23T22:11:49.351+00:00",
                  "security": [
                     {
                        "system": "http://smarthealthit.org/security/users",
                        "code": "Patient/smart-1134281"
                     },
                     {
                        "system": "http://smarthealthit.org/security/categories",
                        "code": "laboratory"
                     }
                  ]
               },
               "text": {
                  "status": "generated",
                  "div": "<div xmlns=\"http://www.w3.org/1999/xhtml\">2005-07-05: Glucose Bld-mCnc = 86 mg/dL</div>"
               },
               "status": "final",
               "category": {
                  "coding": [
                     {
                        "system": "http://hl7.org/fhir/observation-category",
                        "code": "laboratory",
                        "display": "Laboratory"
                     }
                  ],
                  "text": "Laboratory"
               },
               "code": {
                  "coding": [
                     {
                        "system": "http://loinc.org",
                        "code": "2339-0",
                        "display": "Glucose Bld-mCnc"
                     }
                  ],
                  "text": "Glucose Bld-mCnc"
               },
               "subject": {
                  "reference": "Patient/smart-1134281"
               },
               "effectiveDateTime": "2005-07-05",
               "valueQuantity": {
                  "value": 86,
                  "unit": "mg/dL",
                  "system": "http://unitsofmeasure.org"
               },
               "referenceRange": [
                  {
                     "low": {
                        "value": 40,
                        "unit": "mg/dL",
                        "system": "http://unitsofmeasure.org",
                        "code": "mg/dL"
                     },
                     "high": {
                        "value": 109,
                        "unit": "mg/dL",
                        "system": "http://unitsofmeasure.org",
                        "code": "mg/dL"
                     },
                     "meaning": {
                        "coding": [
                           {
                              "system": "http://hl7.org/fhir/referencerange-meaning",
                              "code": "normal",
                              "display": "Normal Range"
                           }
                        ],
                        "text": "Normal Range"
                     }
                  }
               ]
            },
            "search": {
               "mode": "match"
            }
         },
         {
            "fullUrl": "http://165.227.51.4:9002/baseDstu2/Observation/smart-observation-1726-lab",
            "resource": {
               "resourceType": "Observation",
               "id": "smart-observation-1726-lab",
               "meta": {
                  "versionId": "1",
                  "lastUpdated": "2019-08-23T22:11:49.351+00:00",
                  "security": [
                     {
                        "system": "http://smarthealthit.org/security/users",
                        "code": "Patient/smart-1134281"
                     },
                     {
                        "system": "http://smarthealthit.org/security/categories",
                        "code": "laboratory"
                     }
                  ]
               },
               "text": {
                  "status": "generated",
                  "div": "<div xmlns=\"http://www.w3.org/1999/xhtml\">2005-07-05: Glucose Bld-mCnc = 82 mg/dL</div>"
               },
               "status": "final",
               "category": {
                  "coding": [
                     {
                        "system": "http://hl7.org/fhir/observation-category",
                        "code": "laboratory",
                        "display": "Laboratory"
                     }
                  ],
                  "text": "Laboratory"
               },
               "code": {
                  "coding": [
                     {
                        "system": "http://loinc.org",
                        "code": "2339-0",
                        "display": "Glucose Bld-mCnc"
                     }
                  ],
                  "text": "Glucose Bld-mCnc"
               },
               "subject": {
                  "reference": "Patient/smart-1134281"
               },
               "effectiveDateTime": "2005-07-05",
               "valueQuantity": {
                  "value": 82,
                  "unit": "mg/dL",
                  "system": "http://unitsofmeasure.org"
               },
               "referenceRange": [
                  {
                     "low": {
                        "value": 40,
                        "unit": "mg/dL",
                        "system": "http://unitsofmeasure.org",
                        "code": "mg/dL"
                     },
                     "high": {
                        "value": 109,
                        "unit": "mg/dL",
                        "system": "http://unitsofmeasure.org",
                        "code": "mg/dL"
                     },
                     "meaning": {
                        "coding": [
                           {
                              "system": "http://hl7.org/fhir/referencerange-meaning",
                              "code": "normal",
                              "display": "Normal Range"
                           }
                        ],
                        "text": "Normal Range"
                     }
                  }
               ]
            },
            "search": {
               "mode": "match"
            }
         },
         {
            "fullUrl": "http://165.227.51.4:9002/baseDstu2/Observation/smart-observation-1727-lab",
            "resource": {
               "resourceType": "Observation",
               "id": "smart-observation-1727-lab",
               "meta": {
                  "versionId": "1",
                  "lastUpdated": "2019-08-23T22:11:49.351+00:00",
                  "security": [
                     {
                        "system": "http://smarthealthit.org/security/categories",
                        "code": "laboratory"
                     },
                     {
                        "system": "http://smarthealthit.org/security/users",
                        "code": "Patient/smart-1134281"
                     }
                  ]
               },
               "text": {
                  "status": "generated",
                  "div": "<div xmlns=\"http://www.w3.org/1999/xhtml\">2005-07-05: Glucose Bld-mCnc = 76 mg/dL</div>"
               },
               "status": "final",
               "category": {
                  "coding": [
                     {
                        "system": "http://hl7.org/fhir/observation-category",
                        "code": "laboratory",
                        "display": "Laboratory"
                     }
                  ],
                  "text": "Laboratory"
               },
               "code": {
                  "coding": [
                     {
                        "system": "http://loinc.org",
                        "code": "2339-0",
                        "display": "Glucose Bld-mCnc"
                     }
                  ],
                  "text": "Glucose Bld-mCnc"
               },
               "subject": {
                  "reference": "Patient/smart-1134281"
               },
               "effectiveDateTime": "2005-07-05",
               "valueQuantity": {
                  "value": 76,
                  "unit": "mg/dL",
                  "system": "http://unitsofmeasure.org"
               },
               "referenceRange": [
                  {
                     "low": {
                        "value": 40,
                        "unit": "mg/dL",
                        "system": "http://unitsofmeasure.org",
                        "code": "mg/dL"
                     },
                     "high": {
                        "value": 109,
                        "unit": "mg/dL",
                        "system": "http://unitsofmeasure.org",
                        "code": "mg/dL"
                     },
                     "meaning": {
                        "coding": [
                           {
                              "system": "http://hl7.org/fhir/referencerange-meaning",
                              "code": "normal",
                              "display": "Normal Range"
                           }
                        ],
                        "text": "Normal Range"
                     }
                  }
               ]
            },
            "search": {
               "mode": "match"
            }
         },
         {
            "fullUrl": "http://165.227.51.4:9002/baseDstu2/Observation/smart-observation-1728-lab",
            "resource": {
               "resourceType": "Observation",
               "id": "smart-observation-1728-lab",
               "meta": {
                  "versionId": "1",
                  "lastUpdated": "2019-08-23T22:11:49.351+00:00",
                  "security": [
                     {
                        "system": "http://smarthealthit.org/security/users",
                        "code": "Patient/smart-1134281"
                     },
                     {
                        "system": "http://smarthealthit.org/security/categories",
                        "code": "laboratory"
                     }
                  ]
               },
               "text": {
                  "status": "generated",
                  "div": "<div xmlns=\"http://www.w3.org/1999/xhtml\">2005-07-05: WBC # Bld = 17.7 10*3/uL</div>"
               },
               "status": "final",
               "category": {
                  "coding": [
                     {
                        "system": "http://hl7.org/fhir/observation-category",
                        "code": "laboratory",
                        "display": "Laboratory"
                     }
                  ],
                  "text": "Laboratory"
               },
               "code": {
                  "coding": [
                     {
                        "system": "http://loinc.org",
                        "code": "26464-8",
                        "display": "WBC # Bld"
                     }
                  ],
                  "text": "WBC # Bld"
               },
               "subject": {
                  "reference": "Patient/smart-1134281"
               },
               "effectiveDateTime": "2005-07-05",
               "valueQuantity": {
                  "value": 17.7,
                  "unit": "10*3/uL",
                  "system": "http://unitsofmeasure.org"
               },
               "referenceRange": [
                  {
                     "low": {
                        "value": 9,
                        "unit": "10*3/uL",
                        "system": "http://unitsofmeasure.org",
                        "code": "10*3/uL"
                     },
                     "high": {
                        "value": 37,
                        "unit": "10*3/uL",
                        "system": "http://unitsofmeasure.org",
                        "code": "10*3/uL"
                     },
                     "meaning": {
                        "coding": [
                           {
                              "system": "http://hl7.org/fhir/referencerange-meaning",
                              "code": "normal",
                              "display": "Normal Range"
                           }
                        ],
                        "text": "Normal Range"
                     }
                  }
               ]
            },
            "search": {
               "mode": "match"
            }
         },
         {
            "fullUrl": "http://165.227.51.4:9002/baseDstu2/Observation/smart-observation-1729-lab",
            "resource": {
               "resourceType": "Observation",
               "id": "smart-observation-1729-lab",
               "meta": {
                  "versionId": "1",
                  "lastUpdated": "2019-08-23T22:11:49.351+00:00",
                  "security": [
                     {
                        "system": "http://smarthealthit.org/security/users",
                        "code": "Patient/smart-1134281"
                     },
                     {
                        "system": "http://smarthealthit.org/security/categories",
                        "code": "laboratory"
                     }
                  ]
               },
               "text": {
                  "status": "generated",
                  "div": "<div xmlns=\"http://www.w3.org/1999/xhtml\">2005-07-05: RBC # Bld Auto = 4.58 10*6/uL</div>"
               },
               "status": "final",
               "category": {
                  "coding": [
                     {
                        "system": "http://hl7.org/fhir/observation-category",
                        "code": "laboratory",
                        "display": "Laboratory"
                     }
                  ],
                  "text": "Laboratory"
               },
               "code": {
                  "coding": [
                     {
                        "system": "http://loinc.org",
                        "code": "789-8",
                        "display": "RBC # Bld Auto"
                     }
                  ],
                  "text": "RBC # Bld Auto"
               },
               "subject": {
                  "reference": "Patient/smart-1134281"
               },
               "effectiveDateTime": "2005-07-05",
               "valueQuantity": {
                  "value": 4.58,
                  "unit": "10*6/uL",
                  "system": "http://unitsofmeasure.org"
               },
               "referenceRange": [
                  {
                     "low": {
                        "value": 4.1,
                        "unit": "10*6/uL",
                        "system": "http://unitsofmeasure.org",
                        "code": "10*6/uL"
                     },
                     "high": {
                        "value": 6.1,
                        "unit": "10*6/uL",
                        "system": "http://unitsofmeasure.org",
                        "code": "10*6/uL"
                     },
                     "meaning": {
                        "coding": [
                           {
                              "system": "http://hl7.org/fhir/referencerange-meaning",
                              "code": "normal",
                              "display": "Normal Range"
                           }
                        ],
                        "text": "Normal Range"
                     }
                  }
               ]
            },
            "search": {
               "mode": "match"
            }
         }
      ]
   }

