{
      "resourceType": "Bundle",
      "id": "220d1884-3195-4262-960f-91d65d131e70",
      "meta": {
         "lastUpdated": "2020-07-25T01:31:39.626+00:00"
      },
      "type": "searchset",
      "total": 14,
      "link": [
         {
            "relation": "self",
            "url": "http://165.227.51.4:9007/baseDstu3/Patient/smart-1032702/$everything?_count=50"
         }
      ],
      "entry": [
         {
            "fullUrl": "http://165.227.51.4:9007/baseDstu3/Patient/smart-1032702",
            "resource": {
               "resourceType": "Patient",
               "id": "smart-1032702",
               "meta": {
                  "versionId": "1",
                  "lastUpdated": "2019-08-23T22:13:59.779+00:00",
                  "security": [
                     {
                        "system": "http://smarthealthit.org/security/patient",
                        "code": "Patient/smart-smart-1032702"
                     },
                     {
                        "system": "http://smarthealthit.org/security/categories",
                        "code": "patient"
                     }
                  ]
               },
               "text": {
                  "status": "generated",
                  "div": "<div xmlns=\"http://www.w3.org/1999/xhtml\">Amy Shaw</div>"
               },
               "identifier": [
                  {
                     "use": "official",
                     "type": {
                        "coding": [
                           {
                              "system": "http://hl7.org/fhir/v2/0203",
                              "code": "MR",
                              "display": "Medical Record Number"
                           }
                        ],
                        "text": "Medical Record Number"
                     },
                     "system": "http://hospital.smarthealthit.org",
                     "value": "smart-1032702"
                  }
               ],
               "active": true,
               "name": [
                  {
                     "use": "official",
                     "family": "Shaw",
                     "given": [
                        "Amy",
                        "V"
                     ]
                  }
               ],
               "telecom": [
                  {
                     "system": "phone",
                     "value": "800-782-6765",
                     "use": "mobile"
                  },
                  {
                     "system": "email",
                     "value": "amy.shaw@example.com"
                  }
               ],
               "gender": "female",
               "birthDate": "2007-03-20",
               "address": [
                  {
                     "use": "home",
                     "line": [
                        "49 Meadow St"
                     ],
                     "city": "Mounds",
                     "state": "OK",
                     "postalCode": "74047",
                     "country": "USA"
                  }
               ],
               "generalPractitioner": [
                  {
                     "reference": "Practitioner/smart-Practitioner-72004454"
                  }
               ]
            },
            "search": {
               "mode": "include"
            }
         },
         {
            "fullUrl": "http://165.227.51.4:9007/baseDstu3/MedicationRequest/smart-MedicationRequest-101",
            "resource": {
               "resourceType": "MedicationRequest",
               "id": "smart-MedicationRequest-101",
               "meta": {
                  "versionId": "1",
                  "lastUpdated": "2019-08-23T22:13:59.779+00:00",
                  "security": [
                     {
                        "system": "http://smarthealthit.org/security/categories",
                        "code": "medications"
                     },
                     {
                        "system": "http://smarthealthit.org/security/patient",
                        "code": "Patient/smart-1032702"
                     }
                  ]
               },
               "text": {
                  "status": "generated",
                  "div": "<div xmlns=\"http://www.w3.org/1999/xhtml\">Nizatidine 15 MG/ML Oral Solution [Axid] (rxnorm: 582620)</div>"
               },
               "status": "active",
               "intent": "order",
               "medicationCodeableConcept": {
                  "coding": [
                     {
                        "system": "http://www.nlm.nih.gov/research/umls/rxnorm",
                        "code": "582620",
                        "display": "Nizatidine 15 MG/ML Oral Solution [Axid]"
                     }
                  ],
                  "text": "Nizatidine 15 MG/ML Oral Solution [Axid]"
               },
               "subject": {
                  "reference": "Patient/smart-1032702"
               },
               "dosageInstruction": [
                  {
                     "text": "10 mL bid",
                     "timing": {
                        "repeat": {
                           "boundsPeriod": {
                              "start": "2008-04-05"
                           },
                           "frequency": 2,
                           "period": 1,
                           "periodUnit": "d"
                        }
                     },
                     "doseQuantity": {
                        "value": 10,
                        "unit": "mL",
                        "system": "http://unitsofmeasure.org",
                        "code": "mL"
                     }
                  }
               ],
               "dispenseRequest": {
                  "numberOfRepeatsAllowed": 1,
                  "quantity": {
                     "value": 1,
                     "unit": "mL",
                     "system": "http://unitsofmeasure.org",
                     "code": "mL"
                  },
                  "expectedSupplyDuration": {
                     "value": 30,
                     "unit": "days",
                     "system": "http://unitsofmeasure.org",
                     "code": "d"
                  }
               }
            },
            "search": {
               "mode": "match"
            }
         },
         {
            "fullUrl": "http://165.227.51.4:9007/baseDstu3/Condition/smart-Condition-119",
            "resource": {
               "resourceType": "Condition",
               "id": "smart-Condition-119",
               "meta": {
                  "versionId": "1",
                  "lastUpdated": "2019-08-23T22:13:59.779+00:00",
                  "security": [
                     {
                        "system": "http://smarthealthit.org/security/patient",
                        "code": "Patient/smart-1032702"
                     },
                     {
                        "system": "http://smarthealthit.org/security/categories",
                        "code": "problems"
                     }
                  ]
               },
               "text": {
                  "status": "generated",
                  "div": "<div xmlns=\"http://www.w3.org/1999/xhtml\">Single liveborn, born in hospital, delivered without mention of cesarean section</div>"
               },
               "clinicalStatus": "active",
               "verificationStatus": "confirmed",
               "code": {
                  "coding": [
                     {
                        "system": "http://snomed.info/sct",
                        "code": "442311008",
                        "display": "Single liveborn, born in hospital, delivered without mention of cesarean section"
                     }
                  ],
                  "text": "Single liveborn, born in hospital, delivered without mention of cesarean section"
               },
               "subject": {
                  "reference": "Patient/smart-1032702"
               },
               "onsetDateTime": "2007-12-14"
            },
            "search": {
               "mode": "match"
            }
         },
         {
            "fullUrl": "http://165.227.51.4:9007/baseDstu3/Condition/smart-Condition-120",
            "resource": {
               "resourceType": "Condition",
               "id": "smart-Condition-120",
               "meta": {
                  "versionId": "1",
                  "lastUpdated": "2019-08-23T22:13:59.779+00:00",
                  "security": [
                     {
                        "system": "http://smarthealthit.org/security/patient",
                        "code": "Patient/smart-1032702"
                     },
                     {
                        "system": "http://smarthealthit.org/security/categories",
                        "code": "problems"
                     }
                  ]
               },
               "text": {
                  "status": "generated",
                  "div": "<div xmlns=\"http://www.w3.org/1999/xhtml\">Abnormal weight loss</div>"
               },
               "clinicalStatus": "active",
               "verificationStatus": "confirmed",
               "code": {
                  "coding": [
                     {
                        "system": "http://snomed.info/sct",
                        "code": "267024001",
                        "display": "Abnormal weight loss"
                     }
                  ],
                  "text": "Abnormal weight loss"
               },
               "subject": {
                  "reference": "Patient/smart-1032702"
               },
               "onsetDateTime": "2007-12-19"
            },
            "search": {
               "mode": "match"
            }
         },
         {
            "fullUrl": "http://165.227.51.4:9007/baseDstu3/Condition/smart-Condition-121",
            "resource": {
               "resourceType": "Condition",
               "id": "smart-Condition-121",
               "meta": {
                  "versionId": "1",
                  "lastUpdated": "2019-08-23T22:13:59.779+00:00",
                  "security": [
                     {
                        "system": "http://smarthealthit.org/security/patient",
                        "code": "Patient/smart-1032702"
                     },
                     {
                        "system": "http://smarthealthit.org/security/categories",
                        "code": "problems"
                     }
                  ]
               },
               "text": {
                  "status": "generated",
                  "div": "<div xmlns=\"http://www.w3.org/1999/xhtml\">Follow-up encounter</div>"
               },
               "clinicalStatus": "active",
               "verificationStatus": "confirmed",
               "code": {
                  "coding": [
                     {
                        "system": "http://snomed.info/sct",
                        "code": "310249008",
                        "display": "Follow-up encounter"
                     }
                  ],
                  "text": "Follow-up encounter"
               },
               "subject": {
                  "reference": "Patient/smart-1032702"
               },
               "onsetDateTime": "2007-12-19"
            },
            "search": {
               "mode": "match"
            }
         },
         {
            "fullUrl": "http://165.227.51.4:9007/baseDstu3/Condition/smart-Condition-122",
            "resource": {
               "resourceType": "Condition",
               "id": "smart-Condition-122",
               "meta": {
                  "versionId": "1",
                  "lastUpdated": "2019-08-23T22:13:59.779+00:00",
                  "security": [
                     {
                        "system": "http://smarthealthit.org/security/patient",
                        "code": "Patient/smart-1032702"
                     },
                     {
                        "system": "http://smarthealthit.org/security/categories",
                        "code": "problems"
                     }
                  ]
               },
               "text": {
                  "status": "generated",
                  "div": "<div xmlns=\"http://www.w3.org/1999/xhtml\">Gastroesophageal reflux disease</div>"
               },
               "clinicalStatus": "active",
               "verificationStatus": "confirmed",
               "code": {
                  "coding": [
                     {
                        "system": "http://snomed.info/sct",
                        "code": "235595009",
                        "display": "Gastroesophageal reflux disease"
                     }
                  ],
                  "text": "Gastroesophageal reflux disease"
               },
               "subject": {
                  "reference": "Patient/smart-1032702"
               },
               "onsetDateTime": "2008-04-03"
            },
            "search": {
               "mode": "match"
            }
         },
         {
            "fullUrl": "http://165.227.51.4:9007/baseDstu3/Condition/smart-Condition-123",
            "resource": {
               "resourceType": "Condition",
               "id": "smart-Condition-123",
               "meta": {
                  "versionId": "1",
                  "lastUpdated": "2019-08-23T22:13:59.779+00:00",
                  "security": [
                     {
                        "system": "http://smarthealthit.org/security/patient",
                        "code": "Patient/smart-1032702"
                     },
                     {
                        "system": "http://smarthealthit.org/security/categories",
                        "code": "problems"
                     }
                  ]
               },
               "text": {
                  "status": "generated",
                  "div": "<div xmlns=\"http://www.w3.org/1999/xhtml\">Needs influenza immunization</div>"
               },
               "clinicalStatus": "active",
               "verificationStatus": "confirmed",
               "code": {
                  "coding": [
                     {
                        "system": "http://snomed.info/sct",
                        "code": "185903001",
                        "display": "Needs influenza immunization"
                     }
                  ],
                  "text": "Needs influenza immunization"
               },
               "subject": {
                  "reference": "Patient/smart-1032702"
               },
               "onsetDateTime": "2008-06-29"
            },
            "search": {
               "mode": "match"
            }
         },
         {
            "fullUrl": "http://165.227.51.4:9007/baseDstu3/Immunization/smart-Immunization-1",
            "resource": {
               "resourceType": "Immunization",
               "id": "smart-Immunization-1",
               "meta": {
                  "versionId": "1",
                  "lastUpdated": "2019-08-23T22:13:59.779+00:00",
                  "security": [
                     {
                        "system": "http://smarthealthit.org/security/patient",
                        "code": "Patient/smart-1032702"
                     },
                     {
                        "system": "http://smarthealthit.org/security/categories",
                        "code": "immunizations"
                     }
                  ]
               },
               "text": {
                  "status": "generated",
                  "div": "<div xmlns=\"http://www.w3.org/1999/xhtml\">DTaP-hepatitis B and poliovirus vaccine</div>"
               },
               "status": "completed",
               "notGiven": false,
               "vaccineCode": {
                  "coding": [
                     {
                        "system": "http://www2a.cdc.gov/vaccines/IIS/IISStandards/vaccines.asp?rpt=cvx",
                        "code": "110",
                        "display": "DTaP-hepatitis B and poliovirus vaccine"
                     }
                  ],
                  "text": "DTaP-hepatitis B and poliovirus vaccine"
               },
               "patient": {
                  "reference": "Patient/smart-1032702"
               },
               "date": "2007-09-27",
               "primarySource": true
            },
            "search": {
               "mode": "match"
            }
         },
         {
            "fullUrl": "http://165.227.51.4:9007/baseDstu3/Immunization/smart-Immunization-2",
            "resource": {
               "resourceType": "Immunization",
               "id": "smart-Immunization-2",
               "meta": {
                  "versionId": "1",
                  "lastUpdated": "2019-08-23T22:13:59.779+00:00",
                  "security": [
                     {
                        "system": "http://smarthealthit.org/security/patient",
                        "code": "Patient/smart-1032702"
                     },
                     {
                        "system": "http://smarthealthit.org/security/categories",
                        "code": "immunizations"
                     }
                  ]
               },
               "text": {
                  "status": "generated",
                  "div": "<div xmlns=\"http://www.w3.org/1999/xhtml\">poliovirus vaccine, unspecified formulation</div>"
               },
               "status": "completed",
               "notGiven": false,
               "vaccineCode": {
                  "coding": [
                     {
                        "system": "http://www2a.cdc.gov/vaccines/IIS/IISStandards/vaccines.asp?rpt=cvx",
                        "code": "89",
                        "display": "poliovirus vaccine, unspecified formulation"
                     }
                  ],
                  "text": "poliovirus vaccine, unspecified formulation"
               },
               "patient": {
                  "reference": "Patient/smart-1032702"
               },
               "date": "2011-01-27",
               "primarySource": true
            },
            "search": {
               "mode": "match"
            }
         },
         {
            "fullUrl": "http://165.227.51.4:9007/baseDstu3/Immunization/smart-Immunization-3",
            "resource": {
               "resourceType": "Immunization",
               "id": "smart-Immunization-3",
               "meta": {
                  "versionId": "1",
                  "lastUpdated": "2019-08-23T22:13:59.779+00:00",
                  "security": [
                     {
                        "system": "http://smarthealthit.org/security/categories",
                        "code": "immunizations"
                     },
                     {
                        "system": "http://smarthealthit.org/security/patient",
                        "code": "Patient/smart-1032702"
                     }
                  ]
               },
               "text": {
                  "status": "generated",
                  "div": "<div xmlns=\"http://www.w3.org/1999/xhtml\">poliovirus vaccine, unspecified formulation</div>"
               },
               "status": "completed",
               "notGiven": false,
               "vaccineCode": {
                  "coding": [
                     {
                        "system": "http://www2a.cdc.gov/vaccines/IIS/IISStandards/vaccines.asp?rpt=cvx",
                        "code": "89",
                        "display": "poliovirus vaccine, unspecified formulation"
                     }
                  ],
                  "text": "poliovirus vaccine, unspecified formulation"
               },
               "patient": {
                  "reference": "Patient/smart-1032702"
               },
               "date": "2011-05-27",
               "primarySource": true
            },
            "search": {
               "mode": "match"
            }
         },
         {
            "fullUrl": "http://165.227.51.4:9007/baseDstu3/Immunization/smart-Immunization-4",
            "resource": {
               "resourceType": "Immunization",
               "id": "smart-Immunization-4",
               "meta": {
                  "versionId": "1",
                  "lastUpdated": "2019-08-23T22:13:59.779+00:00",
                  "security": [
                     {
                        "system": "http://smarthealthit.org/security/patient",
                        "code": "Patient/smart-1032702"
                     },
                     {
                        "system": "http://smarthealthit.org/security/categories",
                        "code": "immunizations"
                     }
                  ]
               },
               "text": {
                  "status": "generated",
                  "div": "<div xmlns=\"http://www.w3.org/1999/xhtml\">rotavirus, live, pentavalent vaccine</div>"
               },
               "status": "completed",
               "notGiven": false,
               "vaccineCode": {
                  "coding": [
                     {
                        "system": "http://www2a.cdc.gov/vaccines/IIS/IISStandards/vaccines.asp?rpt=cvx",
                        "code": "116",
                        "display": "rotavirus, live, pentavalent vaccine"
                     }
                  ],
                  "text": "rotavirus, live, pentavalent vaccine"
               },
               "patient": {
                  "reference": "Patient/smart-1032702"
               },
               "date": "2007-05-24",
               "primarySource": true
            },
            "search": {
               "mode": "match"
            }
         },
         {
            "fullUrl": "http://165.227.51.4:9007/baseDstu3/Observation/smart-smokingstatus-5",
            "resource": {
               "resourceType": "Observation",
               "id": "smart-smokingstatus-5",
               "meta": {
                  "versionId": "1",
                  "lastUpdated": "2019-08-23T22:13:59.779+00:00",
                  "security": [
                     {
                        "system": "http://smarthealthit.org/security/patient",
                        "code": "Patient/smart-1032702"
                     },
                     {
                        "system": "http://smarthealthit.org/security/categories",
                        "code": "smoking"
                     }
                  ]
               },
               "text": {
                  "status": "generated",
                  "div": "<div xmlns=\"http://www.w3.org/1999/xhtml\">Tobacco smoking status: Current some day smoker</div>"
               },
               "identifier": [
                  {
                     "use": "official",
                     "system": "http://www.bmc.nl/zorgportal/identifiers/observations",
                     "value": "smart-5"
                  }
               ],
               "status": "final",
               "category": [
                  {
                     "coding": [
                        {
                           "system": "http://hl7.org/fhir/observation-category",
                           "code": "social-history",
                           "display": "Social History"
                        }
                     ],
                     "text": "Social History"
                  }
               ],
               "code": {
                  "coding": [
                     {
                        "system": "http://loinc.org",
                        "code": "72166-2",
                        "display": "Tobacco smoking status"
                     }
                  ],
                  "text": "Tobacco smoking status"
               },
               "subject": {
                  "reference": "Patient/smart-1032702"
               },
               "effectiveDateTime": "2016-02-16",
               "performer": [
                  {
                     "reference": "Practitioner/smart-Practitioner-72004454"
                  }
               ],
               "valueCodeableConcept": {
                  "coding": [
                     {
                        "system": "http://snomed.info/sct",
                        "code": "428041000124106",
                        "display": "Current some day smoker"
                     }
                  ],
                  "text": "Current some day smoker"
               }
            },
            "search": {
               "mode": "match"
            }
         },
         {
            "fullUrl": "http://165.227.51.4:9007/baseDstu3/AllergyIntolerance/smart-AllergyIntolerance-19",
            "resource": {
               "resourceType": "AllergyIntolerance",
               "id": "smart-AllergyIntolerance-19",
               "meta": {
                  "versionId": "1",
                  "lastUpdated": "2019-08-23T22:13:59.779+00:00",
                  "security": [
                     {
                        "system": "http://smarthealthit.org/security/categories",
                        "code": "allergy"
                     },
                     {
                        "system": "http://smarthealthit.org/security/patient",
                        "code": "Patient/smart1032702"
                     }
                  ]
               },
               "text": {
                  "status": "generated",
                  "div": "<div xmlns=\"http://www.w3.org/1999/xhtml\">No known allergies</div>"
               },
               "clinicalStatus": "active",
               "verificationStatus": "confirmed",
               "code": {
                  "coding": [
                     {
                        "system": "http://snomed.info/sct",
                        "code": "716186003",
                        "display": "No known allergies"
                     }
                  ],
                  "text": "No known allergies"
               },
               "patient": {
                  "reference": "Patient/smart-1032702"
               },
               "assertedDate": "2000"
            },
            "search": {
               "mode": "match"
            }
         },
         {
            "fullUrl": "http://165.227.51.4:9007/baseDstu3/Practitioner/smart-Practitioner-72004454",
            "resource": {
               "resourceType": "Practitioner",
               "id": "smart-Practitioner-72004454",
               "meta": {
                  "versionId": "1",
                  "lastUpdated": "2019-08-23T22:13:59.543+00:00"
               },
               "text": {
                  "status": "generated",
                  "div": "<div xmlns=\"http://www.w3.org/1999/xhtml\">Michelle Schmidt</div>"
               },
               "identifier": [
                  {
                     "use": "official",
                     "type": {
                        "coding": [
                           {
                              "system": "http://hl7.org/fhir/identifier-type",
                              "code": "SB",
                              "display": "Social Beneficiary Identifier"
                           }
                        ],
                        "text": "US Social Security Number"
                     },
                     "system": "http://hl7.org/fhir/sid/us-ssn",
                     "value": "000-00-0001"
                  }
               ],
               "active": true,
               "name": [
                  {
                     "use": "official",
                     "family": "Schmidt",
                     "given": [
                        "Michelle",
                        "H"
                     ],
                     "suffix": [
                        "MD"
                     ]
                  }
               ],
               "telecom": [
                  {
                     "system": "email",
                     "value": "kevin.lee@example.com"
                  }
               ],
               "address": [
                  {
                     "use": "home",
                     "line": [
                        "80 Mill StApt 21"
                     ],
                     "city": "Sand Springs",
                     "state": "OK",
                     "postalCode": "74063",
                     "country": "USA"
                  }
               ],
               "gender": "male",
               "birthDate": "1997-07-15"
            },
            "search": {
               "mode": "include"
            }
         }
      ]
   }